No,Category,earlier_stim,later_stim,conguency,orientation,instruction,corr_resp,Instruction_stim,early_position,late_position,distance,congruency,Image,Qustion,Response,CorrAns,Path,prac_block.thisRepN,prac_block.thisTrialN,prac_block.thisN,prac_block.thisIndex,trials.thisRepN,trials.thisTrialN,trials.thisN,trials.thisIndex,block1.thisRepN,block1.thisTrialN,block1.thisN,block1.thisIndex,break1.thisRepN,break1.thisTrialN,break1.thisN,break1.thisIndex,block2.thisRepN,block2.thisTrialN,block2.thisN,block2.thisIndex,break2.thisRepN,break2.thisTrialN,break2.thisN,break2.thisIndex,block3.thisRepN,block3.thisTrialN,block3.thisN,block3.thisIndex,break3.thisRepN,break3.thisTrialN,break3.thisN,break3.thisIndex,block4.thisRepN,block4.thisTrialN,block4.thisN,block4.thisIndex,intro_1.started,intro_1.stopped,intro_2.started,intro2_resp.started,intro2_resp.keys,intro2_resp.rt,Intro_3.started,intro3_resp.started,intro3_resp.keys,intro3_resp.rt,pracintro.started,pracintro_resp.started,pracintro_resp.keys,pracintro_resp.rt,image.started,early.started,RESP.started,late.started,pracfeedback.started,pracfeedback.stopped,image.stopped,text_4.started,text_5.started,text_4.stopped,baselinerecord.started,intro_5.started,intro5_resp.started,intro5_resp.keys,intro5_resp.rt,main_image_2.started,etRecord.started,fix.started,main_image_2.stopped,fix.stopped,main_early.started,ct_resp.started,main_late.started,ct_resp.keys,ct_resp.corr,ct_resp.rt,intro.started,intro2_resp_2.started,intro2_resp_2.keys,intro2_resp_2.rt,fengjing.started,text.started,fengjing.stopped,text.stopped,key_resp.started,text_2.started,text_3.started,key_resp.keys,key_resp.corr,key_resp.rt,intro_6.started,intro5_resp_2.started,intro5_resp_2.keys,intro5_resp_2.rt,intro_3.started,intro2_resp_3.started,intro2_resp_3.keys,intro2_resp_3.rt,intro_7.started,intro2_resp_5.started,intro2_resp_5.keys,intro2_resp_5.rt,intro_4.started,intro2_resp_4.started,intro2_resp_4.keys,intro2_resp_4.rt,intro_8.started,intro2_resp_6.started,intro2_resp_6.keys,intro2_resp_6.rt,theend.started,participant,session,date,expName,psychopyVersion,frameRate,
,,,,,,,,,,,,,,,,,,,,,,,,,,,,,,,,,,,,,,,,,,,,,,,,,,,,,,109.67045269999653,111.67987019941211,111.67987019941211,111.67987019941211,space,10.009222500026226,,,,,,,,,,,,,,,,,,,,,,,,,,,,,,,,,,,,,,,,,,,,,,,,,,,,,,,,,,,,,,,,,,,,,,002,001,2023-11-15_15h59.38.773,ETproject_Chi_2023.1.1,2023.1.1,59.99934007208213,
,,,,,,,,,,,,,,,,,,,,,,,,,,,,,,,,,,,,,,,,,,,,,,,,,,,,,,,,,,,,121.71008139941841,121.71008139941841,space,25.490199699997902,,,,,,,,,,,,,,,,,,,,,,,,,,,,,,,,,,,,,,,,,,,,,,,,,,,,,,,,,,,,,,,,,,002,001,2023-11-15_15h59.38.773,ETproject_Chi_2023.1.1,2023.1.1,59.99934007208213,
5,practice,星期二,星期一,incongruent,Hori,early,right,image/Chi_early.png,"[-0.4, 0]","[0.4, 0]",,,,,,,,0,0,0,0,0,0,0,4,,,,,,,,,,,,,,,,,,,,,,,,,,,,,,,,,,,,,,,147.37399869970977,147.37399869970977,space,5.434136999770999,153.09289279952645,153.89897330012172,153.89897330012172,153.89897330012172,155.27721319999546,,,,,,,,,,,,,,,,,,,,,,,,,,,,,,,,,,,,,,,,,,,,,,,,,,,,,,,,,002,001,2023-11-15_15h59.38.773,ETproject_Chi_2023.1.1,2023.1.1,59.99934007208213,
2,practice,星期五,星期六,congruent,Hori,late,right,image/Chi_late.png,"[-0.4, 0]","[0.4, 0]",,,,,,,,0,0,0,0,0,1,1,1,,,,,,,,,,,,,,,,,,,,,,,,,,,,,,,,,,,,,,,,,,,156.28805099986494,157.26461039949208,157.26461039949208,157.26461039949208,159.28082429990172,160.28216109983623,,,,,,,,,,,,,,,,,,,,,,,,,,,,,,,,,,,,,,,,,,,,,,,,,,,,,,,,002,001,2023-11-15_15h59.38.773,ETproject_Chi_2023.1.1,2023.1.1,59.99934007208213,
8,practice,星期六,星期五,incongruent,Vert,late,up,image/Chi_late.png,"[0, 0.4]","[0, -0.4]",,,,,,,,0,0,0,0,0,2,2,7,,,,,,,,,,,,,,,,,,,,,,,,,,,,,,,,,,,,,,,,,,,160.28216109983623,161.29673779942095,161.29673779942095,161.29673779942095,162.26318929996341,163.26507329940796,,,,,,,,,,,,,,,,,,,,,,,,,,,,,,,,,,,,,,,,,,,,,,,,,,,,,,,,002,001,2023-11-15_15h59.38.773,ETproject_Chi_2023.1.1,2023.1.1,59.99934007208213,
4,practice,星期日,星期一,congruent,Vert,late,down,image/Chi_late.png,"[0, 0.4]","[0, -0.4]",,,,,,,,0,0,0,0,0,3,3,3,,,,,,,,,,,,,,,,,,,,,,,,,,,,,,,,,,,,,,,,,,,163.26507329940796,164.27892639953643,164.27892639953643,164.27892639953643,165.56524570006877,,,,,,,,,,,,,,,,,,,,,,,,,,,,,,,,,,,,,,,,,,,,,,,,,,,,,,,,,002,001,2023-11-15_15h59.38.773,ETproject_Chi_2023.1.1,2023.1.1,59.99934007208213,
6,practice,星期四,星期三 ,incongruent,Hori,late,left,image/Chi_late.png,"[-0.4, 0]","[0.4, 0]",,,,,,,,0,0,0,0,0,4,4,5,,,,,,,,,,,,,,,,,,,,,,,,,,,,,,,,,,,,,,,,,,,166.5804546996951,167.5778375994414,167.5778375994414,167.5778375994414,168.9776385994628,169.98587589990348,,,,,,,,,,,,,,,,,,,,,,,,,,,,,,,,,,,,,,,,,,,,,,,,,,,,,,,,002,001,2023-11-15_15h59.38.773,ETproject_Chi_2023.1.1,2023.1.1,59.99934007208213,
3,practice,星期一,星期二,congruent,Vert,early,up,image/Chi_early.png,"[0, 0.4]","[0, -0.4]",,,,,,,,0,0,0,0,0,5,5,2,,,,,,,,,,,,,,,,,,,,,,,,,,,,,,,,,,,,,,,,,,,169.98587589990348,170.99349199980497,170.99349199980497,170.99349199980497,172.4764614002779,173.4772097002715,,,,,,,,,,,,,,,,,,,,,,,,,,,,,,,,,,,,,,,,,,,,,,,,,,,,,,,,002,001,2023-11-15_15h59.38.773,ETproject_Chi_2023.1.1,2023.1.1,59.99934007208213,
7,practice,星期三 ,星期二,incongruent,Vert,early,down,image/Chi_early.png,"[0, 0.4]","[0, -0.4]",,,,,,,,0,0,0,0,0,6,6,6,,,,,,,,,,,,,,,,,,,,,,,,,,,,,,,,,,,,,,,,,,,173.4772097002715,174.47569619957358,174.47569619957358,174.47569619957358,175.49227599985898,176.49371139984578,174.47569619957358,,,,,,,,,,,,,,,,,,,,,,,,,,,,,,,,,,,,,,,,,,,,,,,,,,,,,,,002,001,2023-11-15_15h59.38.773,ETproject_Chi_2023.1.1,2023.1.1,59.99934007208213,
1,practice,星期三 ,星期四,congruent,Hori,early,left,image/Chi_early.png,"[-0.4, 0]","[0.4, 0]",,,,,,,,0,0,0,0,0,7,7,0,,,,,,,,,,,,,,,,,,,,,,,,,,,,,,,,,,,,,,,,,,,176.49371139984578,177.50806050002575,177.50806050002575,177.50806050002575,178.4245418999344,179.4241867000237,,,,,,,,,,,,,,,,,,,,,,,,,,,,,,,,,,,,,,,,,,,,,,,,,,,,,,,,002,001,2023-11-15_15h59.38.773,ETproject_Chi_2023.1.1,2023.1.1,59.99934007208213,
,,,,,,,,,,,,,,,,,,0,0,0,0,,,,,,,,,,,,,,,,,,,,,,,,,,,,,,,,,,,,,,,,,,,,,,,,,,,,,,,,,,,,,,,,,,,,,,,,,,,,,,,,,,,,,,,,,,,,,,,,,,,,,,,,,,,,002,001,2023-11-15_15h59.38.773,ETproject_Chi_2023.1.1,2023.1.1,59.99934007208213,
,,,,,,,,,,,,,,,,,,,,,,,,,,,,,,,,,,,,,,,,,,,,,,,,,,,,,,,,,,,,,,,,,,,,,,,,,,,179.4241867000237,182.42311879992485,182.43974099960178,3.0147824995219707,186.4383199000731,186.4383199000731,space,2.4511561999097466,,,,,,,,,,,,,,,,,,,,,,,,,,,,,,,,,,,,,,,,,,,,,,,002,001,2023-11-15_15h59.38.773,ETproject_Chi_2023.1.1,2023.1.1,59.99934007208213,
139,Week,星期四,星期一,,Vert,early,down,image/Chi_early.png,"[0, 0.4]","[0, -0.4]",3,incongruent,,,,,,,,,,,,,,0,0,0,7,,,,,,,,,,,,,,,,,,,,,,,,,,,,,,,,,,,,,,,,,,,,,,,,,,,,,,189.26301349978894,0.9994262000545859,190.0045167999342,190.2703269002959,190.8202949995175,190.920154299587,190.920154299587,190.920154299587,down,1,0.8811205998063087,,,,,,,,,,,,,,,,,,,,,,,,,,,,,,,,,,,,002,001,2023-11-15_15h59.38.773,ETproject_Chi_2023.1.1,2023.1.1,59.99934007208213,
12,Week,星期日,星期四,,Vert,late,up,image/Chi_late.png,"[0, 0.4]","[0, -0.4]",3,incongruent,,,,,,,,,,,,,,0,1,1,9,,,,,,,,,,,,,,,,,,,,,,,,,,,,,,,,,,,,,,,,,,,,,,,,,,,,,,191.83714940026402,1.0121730007231236,192.91974040027708,192.83619089983404,193.71935580018908,193.8193886000663,193.8193886000663,193.8193886000663,up,1,1.0453193997964263,,,,,,,,,,,,,,,,,,,,,,,,,,,,,,,,,,,,002,001,2023-11-15_15h59.38.773,ETproject_Chi_2023.1.1,2023.1.1,59.99934007208213,
38,Month,八月,十月 ,,Vert,late,down,image/Chi_late.png,"[0, 0.4]","[0, -0.4]",2,congruent,,,,,,,,,,,,,,0,2,2,37,,,,,,,,,,,,,,,,,,,,,,,,,,,,,,,,,,,,,,,,,,,,,,,,,,,,,,194.89734550006688,1.0112042995169759,195.98509049974382,195.90191309992224,196.78475379943848,196.8848938997835,196.8848938997835,196.8848938997835,up,0,1.6450076000764966,,,,,,,,,,,,,,,,,,,,,,,,,,,,,,,,,,,,002,001,2023-11-15_15h59.38.773,ETproject_Chi_2023.1.1,2023.1.1,59.99934007208213,
126,Week,星期三 ,星期二,,Hori,early,right,image/Chi_early.png,"[-0.4, 0]","[0.4, 0]",1,incongruent,,,,,,,,,,,,,,0,3,3,25,,,,,,,,,,,,,,,,,,,,,,,,,,,,,,,,,,,,,,,,,,,,,,,,,,,,,,198.56098049972206,1.0142867006361485,199.65062349941581,199.56723720021546,200.45021609961987,200.5503771994263,200.5503771994263,200.5503771994263,right,1,0.88296930026263,,,,,,,,,,,,,,,,,,,,,,,,,,,,,,,,,,,,002,001,2023-11-15_15h59.38.773,ETproject_Chi_2023.1.1,2023.1.1,59.99934007208213,
132,Week,星期四,星期一,,Hori,late,left,image/Chi_late.png,"[-0.4, 0]","[0.4, 0]",3,incongruent,,,,,,,,,,,,,,0,4,4,19,,,,,,,,,,,,,,,,,,,,,,,,,,,,,,,,,,,,,,,,,,,,,,,,,,,,,,201.46589449979365,1.0118693001568317,202.54960389994085,202.4663974000141,203.34967469982803,203.44942159950733,203.44942159950733,203.44942159950733,left,1,1.1508883005008101,,,,,,,,,,,,,,,,,,,,,,,,,,,,,,,,,,,,002,001,2023-11-15_15h59.38.773,ETproject_Chi_2023.1.1,2023.1.1,59.99934007208213,
136,Week,星期日,星期五,,Hori,late,left,image/Chi_late.png,"[-0.4, 0]","[0.4, 0]",2,incongruent,,,,,,,,,,,,,,0,5,5,17,,,,,,,,,,,,,,,,,,,,,,,,,,,,,,,,,,,,,,,,,,,,,,,,,,,,,,204.6416354002431,1.0132074998691678,205.73192869964987,205.64873010013252,206.5318780997768,206.63170859962702,206.63170859962702,206.63170859962702,left,1,0.9061176003888249,,,,,,,,,,,,,,,,,,,,,,,,,,,,,,,,,,,,002,001,2023-11-15_15h59.38.773,ETproject_Chi_2023.1.1,2023.1.1,59.99934007208213,
63,Month,十二月,九月 ,,Vert,early,down,image/Chi_early.png,"[0, 0.4]","[0, -0.4]",3,incongruent,,,,,,,,,,,,,,0,6,6,22,,,,,,,,,,,,,,,,,,,,,,,,,,,,,,,,,,,,,,,,,,,,,,,,,,,,,,207.57759900018573,1.0116070993244648,208.66433299984783,208.58107799943537,209.4641308998689,209.5641359994188,209.5641359994188,209.5641359994188,down,1,0.9326259000226855,,,,,,,,,,,,,,,,,,,,,,,,,,,,,,,,,,,,002,001,2023-11-15_15h59.38.773,ETproject_Chi_2023.1.1,2023.1.1,59.99934007208213,
46,Month,四月,一月,,Hori,late,left,image/Chi_late.png,"[-0.4, 0]","[0.4, 0]",3,incongruent,,,,,,,,,,,,,,0,7,7,14,,,,,,,,,,,,,,,,,,,,,,,,,,,,,,,,,,,,,,,,,,,,,,,,,,,,,,210.53104340005666,1.0100746992975473,211.61355779971927,211.53003340028226,212.41307459957898,212.51316529978067,212.51316529978067,212.51316529978067,left,1,2.0723860999569297,,,,,,,,,,,,,,,,,,,,,,,,,,,,,,,,,,,,002,001,2023-11-15_15h59.38.773,ETproject_Chi_2023.1.1,2023.1.1,59.99934007208213,
23,Month,七月,十一月 ,,Vert,early,up,image/Chi_early.png,"[0, 0.4]","[0, -0.4]",4,congruent,,,,,,,,,,,,,,0,8,8,48,,,,,,,,,,,,,,,,,,,,,,,,,,,,,,,,,,,,,,,,,,,,,,,,,,,,,,214.6288636997342,1.0101958001032472,215.71205529943109,215.628757099621,216.5114521998912,216.6115959994495,216.6115959994495,216.6115959994495,up,1,0.7575920997187495,,,,,,,,,,,,,,,,,,,,,,,,,,,,,,,,,,,,002,001,2023-11-15_15h59.38.773,ETproject_Chi_2023.1.1,2023.1.1,59.99934007208213,
77,Month,九月 ,七月,,Vert,late,up,image/Chi_late.png,"[0, 0.4]","[0, -0.4]",2,incongruent,,,,,,,,,,,,,,0,9,9,43,,,,,,,,,,,,,,,,,,,,,,,,,,,,,,,,,,,,,,,,,,,,,,,,,,,,,,217.4071709997952,1.012749600224197,218.49455290008336,218.4111879998818,219.29402959998697,219.39429629966617,219.39429629966617,219.39429629966617,up,1,1.1510554002597928,,,,,,,,,,,,,,,,,,,,,,,,,,,,,,,,,,,,002,001,2023-11-15_15h59.38.773,ETproject_Chi_2023.1.1,2023.1.1,59.99934007208213,
49,Month,七月,四月,,Hori,late,left,image/Chi_late.png,"[-0.4, 0]","[0.4, 0]",3,incongruent,,,,,,,,,,,,,,0,10,10,38,,,,,,,,,,,,,,,,,,,,,,,,,,,,,,,,,,,,,,,,,,,,,,,,,,,,,,220.58589089941233,1.0129113998264074,221.67671759985387,221.5934060998261,222.47642510011792,222.57644069939852,222.57644069939852,222.57644069939852,left,1,0.729207900352776,,,,,,,,,,,,,,,,,,,,,,,,,,,,,,,,,,,,002,001,2023-11-15_15h59.38.773,ETproject_Chi_2023.1.1,2023.1.1,59.99934007208213,
29,Month,七月,八月,,Vert,early,up,image/Chi_early.png,"[0, 0.4]","[0, -0.4]",1,congruent,,,,,,,,,,,,,,0,11,11,2,,,,,,,,,,,,,,,,,,,,,,,,,,,,,,,,,,,,,,,,,,,,,,,,,,,,,,223.336430599913,1.0108281997963786,224.42596299946308,224.34252039995044,225.22546460013837,225.32541880011559,225.32541880011559,225.32541880011559,up,1,0.8678827993571758,,,,,,,,,,,,,,,,,,,,,,,,,,,,,,,,,,,,002,001,2023-11-15_15h59.38.773,ETproject_Chi_2023.1.1,2023.1.1,59.99934007208213,
120,Week,星期三 ,星期六,,Vert,late,down,image/Chi_late.png,"[0, 0.4]","[0, -0.4]",3,congruent,,,,,,,,,,,,,,0,12,12,34,,,,,,,,,,,,,,,,,,,,,,,,,,,,,,,,,,,,,,,,,,,,,,,,,,,,,,226.23741090018302,1.012959100306034,227.32483789976686,227.24151130020618,228.1245336001739,228.22446499951184,228.22446499951184,228.22446499951184,down,1,0.8161631999537349,,,,,,,,,,,,,,,,,,,,,,,,,,,,,,,,,,,,002,001,2023-11-15_15h59.38.773,ETproject_Chi_2023.1.1,2023.1.1,59.99934007208213,
24,Month,六月,九月 ,,Vert,early,up,image/Chi_early.png,"[0, 0.4]","[0, -0.4]",3,congruent,,,,,,,,,,,,,,0,13,13,33,,,,,,,,,,,,,,,,,,,,,,,,,,,,,,,,,,,,,,,,,,,,,,,,,,,,,,229.07229250017554,1.0117927994579077,230.15721889957786,230.07408769987524,230.95677569974214,231.05702619999647,231.05702619999647,231.05702619999647,up,1,0.8239366002380848,,,,,,,,,,,,,,,,,,,,,,,,,,,,,,,,,,,,002,001,2023-11-15_15h59.38.773,ETproject_Chi_2023.1.1,2023.1.1,59.99934007208213,
20,Month,四月,八月,,Vert,early,up,image/Chi_early.png,"[0, 0.4]","[0, -0.4]",4,congruent,,,,,,,,,,,,,,0,14,14,4,,,,,,,,,,,,,,,,,,,,,,,,,,,,,,,,,,,,,,,,,,,,,,,,,,,,,,231.91271369997412,1.0153090003877878,233.00632200017571,232.9230341995135,233.8059502998367,233.9059742996469,233.9059742996469,233.9059742996469,up,1,0.7512251995503902,,,,,,,,,,,,,,,,,,,,,,,,,,,,,,,,,,,,002,001,2023-11-15_15h59.38.773,ETproject_Chi_2023.1.1,2023.1.1,59.99934007208213,
6,Month,六月,十月 ,,Hori,early,left,image/Chi_early.png,"[-0.4, 0]","[0.4, 0]",4,congruent,,,,,,,,,,,,,,0,15,15,29,,,,,,,,,,,,,,,,,,,,,,,,,,,,,,,,,,,,,,,,,,,,,,,,,,,,,,234.69988590013236,1.0109826996922493,235.78873560018837,235.70529889967293,236.5886607998982,236.68870619963855,236.68870619963855,236.68870619963855,left,1,0.7916307002305984,,,,,,,,,,,,,,,,,,,,,,,,,,,,,,,,,,,,002,001,2023-11-15_15h59.38.773,ETproject_Chi_2023.1.1,2023.1.1,59.99934007208213,
143,Week,星期六,星期五,,Vert,early,down,image/Chi_early.png,"[0, 0.4]","[0, -0.4]",1,incongruent,,,,,,,,,,,,,,0,16,16,36,,,,,,,,,,,,,,,,,,,,,,,,,,,,,,,,,,,,,,,,,,,,,,,,,,,,,,237.51291569974273,1.0114290993660688,238.6045460999012,238.5210151001811,239.40415589977056,239.504267799668,239.504267799668,239.504267799668,down,1,0.9292096998542547,,,,,,,,,,,,,,,,,,,,,,,,,,,,,,,,,,,,002,001,2023-11-15_15h59.38.773,ETproject_Chi_2023.1.1,2023.1.1,59.99934007208213,
148,Week,星期六,星期三 ,,Vert,late,up,image/Chi_late.png,"[0, 0.4]","[0, -0.4]",3,incongruent,,,,,,,,,,,,,,0,17,17,26,,,,,,,,,,,,,,,,,,,,,,,,,,,,,,,,,,,,,,,,,,,,,,,,,,,,,,240.46683689951897,1.0110532995313406,241.55352840013802,241.4701690999791,242.35322789940983,242.45313439983875,242.45313439983875,242.45313439983875,up,1,1.124367899261415,,,,,,,,,,,,,,,,,,,,,,,,,,,,,,,,,,,,002,001,2023-11-15_15h59.38.773,ETproject_Chi_2023.1.1,2023.1.1,59.99934007208213,
112,Week,星期二,星期三 ,,Vert,early,up,image/Chi_early.png,"[0, 0.4]","[0, -0.4]",1,congruent,,,,,,,,,,,,,,0,18,18,31,,,,,,,,,,,,,,,,,,,,,,,,,,,,,,,,,,,,,,,,,,,,,,,,,,,,,,243.61814210005105,1.010690899565816,244.70240779966116,244.6192760001868,245.50222249981016,245.6020897999406,245.6020897999406,245.6020897999406,up,1,0.9666488999500871,,,,,,,,,,,,,,,,,,,,,,,,,,,,,,,,,,,,002,001,2023-11-15_15h59.38.773,ETproject_Chi_2023.1.1,2023.1.1,59.99934007208213,
142,Week,星期五,星期四,,Vert,early,down,image/Chi_early.png,"[0, 0.4]","[0, -0.4]",1,incongruent,,,,,,,,,,,,,,0,19,19,0,,,,,,,,,,,,,,,,,,,,,,,,,,,,,,,,,,,,,,,,,,,,,,,,,,,,,,246.59047579951584,0.999193700030446,247.68522460013628,247.60150260012597,248.484507500194,248.58462900016457,248.58462900016457,248.58462900016457,down,1,0.8728443998843431,,,,,,,,,,,,,,,,,,,,,,,,,,,,,,,,,,,,002,001,2023-11-15_15h59.38.773,ETproject_Chi_2023.1.1,2023.1.1,59.99934007208213,
106,Week,星期三 ,星期六,,Hori,late,right,image/Chi_late.png,"[-0.4, 0]","[0.4, 0]",3,congruent,,,,,,,,,,,,,,0,20,20,3,,,,,,,,,,,,,,,,,,,,,,,,,,,,,,,,,,,,,,,,,,,,,,,,,,,,,,249.49297709949315,1.0150998998433352,250.58383079990745,250.50050210021436,251.38365599978715,251.48368120007217,251.48368120007217,251.48368120007217,right,1,0.94153350032866,,,,,,,,,,,,,,,,,,,,,,,,,,,,,,,,,,,,002,001,2023-11-15_15h59.38.773,ETproject_Chi_2023.1.1,2023.1.1,59.99934007208213,
45,Month,九月 ,五月,,Hori,late,left,image/Chi_late.png,"[-0.4, 0]","[0.4, 0]",4,incongruent,,,,,,,,,,,,,,0,21,21,39,,,,,,,,,,,,,,,,,,,,,,,,,,,,,,,,,,,,,,,,,,,,,,,,,,,,,,252.45872309990227,1.0130179999396205,253.54947530012578,253.46618959959596,254.34927190002054,254.44932499993593,254.44932499993593,254.44932499993593,left,1,0.8162521999329329,,,,,,,,,,,,,,,,,,,,,,,,,,,,,,,,,,,,002,001,2023-11-15_15h59.38.773,ETproject_Chi_2023.1.1,2023.1.1,59.99934007208213,
101,Week,星期五,星期日,,Hori,early,left,image/Chi_early.png,"[-0.4, 0]","[0.4, 0]",2,congruent,,,,,,,,,,,,,,0,22,22,40,,,,,,,,,,,,,,,,,,,,,,,,,,,,,,,,,,,,,,,,,,,,,,,,,,,,,,255.29435999970883,1.0107113001868129,256.3820449002087,256.2985974000767,257.1816197996959,257.28192459978163,257.28192459978163,257.28192459978163,left,1,1.1985117997974157,,,,,,,,,,,,,,,,,,,,,,,,,,,,,,,,,,,,002,001,2023-11-15_15h59.38.773,ETproject_Chi_2023.1.1,2023.1.1,59.99934007208213,
125,Week,星期三 ,星期一,,Hori,early,right,image/Chi_early.png,"[-0.4, 0]","[0.4, 0]",2,incongruent,,,,,,,,,,,,,,0,23,23,5,,,,,,,,,,,,,,,,,,,,,,,,,,,,,,,,,,,,,,,,,,,,,,,,,,,,,,258.51181669998914,1.0132194999605417,259.59778380021453,259.51425160001963,260.39747409988195,260.4973269002512,260.4973269002512,260.4973269002512,right,1,0.7676574997603893,,,,,,,,,,,,,,,,,,,,,,,,,,,,,,,,,,,,002,001,2023-11-15_15h59.38.773,ETproject_Chi_2023.1.1,2023.1.1,59.99934007208213,
127,Week,星期五,星期三 ,,Hori,early,right,image/Chi_early.png,"[-0.4, 0]","[0.4, 0]",2,incongruent,,,,,,,,,,,,,,0,24,24,13,,,,,,,,,,,,,,,,,,,,,,,,,,,,,,,,,,,,,,,,,,,,,,,,,,,,,,261.305161899887,1.0130079993978143,262.39656599983573,262.3133905995637,263.1963881999254,263.29645030014217,263.29645030014217,263.29645030014217,right,1,0.7362424992024899,,,,,,,,,,,,,,,,,,,,,,,,,,,,,,,,,,,,002,001,2023-11-15_15h59.38.773,ETproject_Chi_2023.1.1,2023.1.1,59.99934007208213,
34,Month,七月,十月 ,,Vert,late,down,image/Chi_late.png,"[0, 0.4]","[0, -0.4]",3,congruent,,,,,,,,,,,,,,0,25,25,11,,,,,,,,,,,,,,,,,,,,,,,,,,,,,,,,,,,,,,,,,,,,,,,,,,,,,,264.0747272996232,1.012092599645257,265.1626504994929,265.0791342994198,265.96217880025506,266.0622579995543,266.0622579995543,266.0622579995543,down,1,1.2272340999916196,,,,,,,,,,,,,,,,,,,,,,,,,,,,,,,,,,,,002,001,2023-11-15_15h59.38.773,ETproject_Chi_2023.1.1,2023.1.1,59.99934007208213,
58,Month,六月,二月,,Vert,late,up,image/Chi_late.png,"[0, 0.4]","[0, -0.4]",4,incongruent,,,,,,,,,,,,,,0,26,26,18,,,,,,,,,,,,,,,,,,,,,,,,,,,,,,,,,,,,,,,,,,,,,,,,,,,,,,268.32037870027125,1.0146059999242425,269.41087260004133,269.3277083998546,270.21083499956876,270.31073229946196,270.31073229946196,270.31073229946196,up,1,1.0175203001126647,,,,,,,,,,,,,,,,,,,,,,,,,,,,,,,,,,,,002,001,2023-11-15_15h59.38.773,ETproject_Chi_2023.1.1,2023.1.1,59.99934007208213,
26,Month,六月,八月,,Vert,early,up,image/Chi_early.png,"[0, 0.4]","[0, -0.4]",2,congruent,,,,,,,,,,,,,,0,27,27,32,,,,,,,,,,,,,,,,,,,,,,,,,,,,,,,,,,,,,,,,,,,,,,,,,,,,,,271.36841170024127,1.013014699332416,272.45984829962254,272.3763592997566,273.25967779941857,273.35964979976416,273.35964979976416,273.35964979976416,up,1,0.7925468990579247,,,,,,,,,,,,,,,,,,,,,,,,,,,,,,,,,,,,002,001,2023-11-15_15h59.38.773,ETproject_Chi_2023.1.1,2023.1.1,59.99934007208213,
75,Month,十月 ,九月 ,,Vert,early,down,image/Chi_early.png,"[0, 0.4]","[0, -0.4]",1,incongruent,,,,,,,,,,,,,,0,28,28,1,,,,,,,,,,,,,,,,,,,,,,,,,,,,,,,,,,,,,,,,,,,,,,,,,,,,,,274.184720300138,1.0110972998663783,275.2756648994982,275.1925828997046,276.0754480995238,276.1753997998312,276.1753997998312,276.1753997998312,down,1,0.9048677990213037,,,,,,,,,,,,,,,,,,,,,,,,,,,,,,,,,,,,002,001,2023-11-15_15h59.38.773,ETproject_Chi_2023.1.1,2023.1.1,59.99934007208213,
98,Week,星期二,星期三 ,,Hori,early,left,image/Chi_early.png,"[-0.4, 0]","[0.4, 0]",1,congruent,,,,,,,,,,,,,,0,29,29,49,,,,,,,,,,,,,,,,,,,,,,,,,,,,,,,,,,,,,,,,,,,,,,,,,,,,,,277.116884900257,1.0125545002520084,278.20791309978813,278.1246657995507,279.0076979994774,279.10784169938415,279.10784169938415,279.10784169938415,left,1,0.941376100294292,,,,,,,,,,,,,,,,,,,,,,,,,,,,,,,,,,,,002,001,2023-11-15_15h59.38.773,ETproject_Chi_2023.1.1,2023.1.1,59.99934007208213,
114,Week,星期四,星期日,,Vert,early,up,image/Chi_early.png,"[0, 0.4]","[0, -0.4]",3,congruent,,,,,,,,,,,,,,0,30,30,12,,,,,,,,,,,,,,,,,,,,,,,,,,,,,,,,,,,,,,,,,,,,,,,,,,,,,,280.08171929977834,1.0129500003531575,281.17364329937845,281.0906205996871,281.9734535999596,282.0734700001776,282.0734700001776,282.0734700001776,up,1,1.0235750004649162,,,,,,,,,,,,,,,,,,,,,,,,,,,,,,,,,,,,002,001,2023-11-15_15h59.38.773,ETproject_Chi_2023.1.1,2023.1.1,59.99934007208213,
97,Week,星期一,星期四,,Hori,early,left,image/Chi_early.png,"[-0.4, 0]","[0.4, 0]",3,congruent,,,,,,,,,,,,,,0,31,31,20,,,,,,,,,,,,,,,,,,,,,,,,,,,,,,,,,,,,,,,,,,,,,,,,,,,,,,283.13032600004226,0.9992625005543232,284.2228768002242,284.13961640000343,285.02239970024675,285.12249139975756,285.12249139975756,285.12249139975756,left,1,0.7107884995639324,,,,,,,,,,,,,,,,,,,,,,,,,,,,,,,,,,,,002,001,2023-11-15_15h59.38.773,ETproject_Chi_2023.1.1,2023.1.1,59.99934007208213,
112,Week,星期二,星期五,,Vert,early,up,image/Chi_early.png,"[0, 0.4]","[0, -0.4]",3,congruent,,,,,,,,,,,,,,0,32,32,24,,,,,,,,,,,,,,,,,,,,,,,,,,,,,,,,,,,,,,,,,,,,,,,,,,,,,,285.86036179959774,1.0153181999921799,286.95504860021174,286.8720247000456,287.75498369988054,287.8549438994378,287.8549438994378,287.8549438994378,up,1,0.7302682995796204,,,,,,,,,,,,,,,,,,,,,,,,,,,,,,,,,,,,002,001,2023-11-15_15h59.38.773,ETproject_Chi_2023.1.1,2023.1.1,59.99934007208213,
99,Week,星期三 ,星期六,,Hori,early,left,image/Chi_early.png,"[-0.4, 0]","[0.4, 0]",3,congruent,,,,,,,,,,,,,,0,33,33,6,,,,,,,,,,,,,,,,,,,,,,,,,,,,,,,,,,,,,,,,,,,,,,,,,,,,,,288.6141988998279,1.0104526998475194,289.70419119950384,289.62104059942067,290.5040172999725,290.6039626998827,290.6039626998827,290.6039626998827,left,1,0.741410699672997,,,,,,,,,,,,,,,,,,,,,,,,,,,,,,,,,,,,002,001,2023-11-15_15h59.38.773,ETproject_Chi_2023.1.1,2023.1.1,59.99934007208213,
141,Week,星期五,星期三 ,,Vert,early,down,image/Chi_early.png,"[0, 0.4]","[0, -0.4]",2,incongruent,,,,,,,,,,,,,,0,34,34,15,,,,,,,,,,,,,,,,,,,,,,,,,,,,,,,,,,,,,,,,,,,,,,,,,,,,,,291.3783865002915,1.012085199356079,292.46991449967027,292.38672390021384,293.26989119965583,293.3697820995003,293.3697820995003,293.3697820995003,down,1,0.7828767998144031,,,,,,,,,,,,,,,,,,,,,,,,,,,,,,,,,,,,002,001,2023-11-15_15h59.38.773,ETproject_Chi_2023.1.1,2023.1.1,59.99934007208213,
50,Month,八月,五月,,Hori,late,left,image/Chi_late.png,"[-0.4, 0]","[0.4, 0]",3,incongruent,,,,,,,,,,,,,,0,35,35,35,,,,,,,,,,,,,,,,,,,,,,,,,,,,,,,,,,,,,,,,,,,,,,,,,,,,,,294.1867081001401,1.0118427006527781,295.26905389968306,295.1857620999217,296.0688308002427,296.1688304999843,296.1688304999843,296.1688304999843,left,1,0.8080508997663856,,,,,,,,,,,,,,,,,,,,,,,,,,,,,,,,,,,,002,001,2023-11-15_15h59.38.773,ETproject_Chi_2023.1.1,2023.1.1,59.99934007208213,
150,Week,星期日,星期五,,Vert,late,up,image/Chi_late.png,"[0, 0.4]","[0, -0.4]",2,incongruent,,,,,,,,,,,,,,0,36,36,46,,,,,,,,,,,,,,,,,,,,,,,,,,,,,,,,,,,,,,,,,,,,,,,,,,,,,,297.0091175995767,1.0156638994812965,298.1014192001894,298.01819849945605,298.90126249939203,299.0012577995658,299.0012577995658,299.0012577995658,up,1,1.3109083995223045,,,,,,,,,,,,,,,,,,,,,,,,,,,,,,,,,,,,002,001,2023-11-15_15h59.38.773,ETproject_Chi_2023.1.1,2023.1.1,59.99934007208213,
13,Month,四月,七月,,Hori,late,right,image/Chi_late.png,"[-0.4, 0]","[0.4, 0]",3,congruent,,,,,,,,,,,,,,0,37,37,41,,,,,,,,,,,,,,,,,,,,,,,,,,,,,,,,,,,,,,,,,,,,,,,,,,,,,,300.3444039002061,1.0098812002688646,301.43359520006925,301.35047210007906,302.2334348997101,302.33336609974504,302.33336609974504,302.33336609974504,right,1,0.8833990003913641,,,,,,,,,,,,,,,,,,,,,,,,,,,,,,,,,,,,002,001,2023-11-15_15h59.38.773,ETproject_Chi_2023.1.1,2023.1.1,59.99934007208213,
78,Month,十月 ,八月,,Vert,late,up,image/Chi_late.png,"[0, 0.4]","[0, -0.4]",2,incongruent,,,,,,,,,,,,,,0,38,38,44,,,,,,,,,,,,,,,,,,,,,,,,,,,,,,,,,,,,,,,,,,,,,,,,,,,,,,303.24282369948924,1.0135988993570209,304.3329617995769,304.24949089996517,305.13235170021653,305.23242329992354,305.23242329992354,305.23242329992354,up,1,0.8717681998386979,,,,,,,,,,,,,,,,,,,,,,,,,,,,,,,,,,,,002,001,2023-11-15_15h59.38.773,ETproject_Chi_2023.1.1,2023.1.1,59.99934007208213,
24,Month,四月,六月,,Vert,early,up,image/Chi_early.png,"[0, 0.4]","[0, -0.4]",2,congruent,,,,,,,,,,,,,,0,39,39,8,,,,,,,,,,,,,,,,,,,,,,,,,,,,,,,,,,,,,,,,,,,,,,,,,,,,,,306.1450244002044,1.012062200345099,307.2320258002728,307.1485369000584,308.03146590013057,308.1314773000777,308.1314773000777,308.1314773000777,up,1,1.1577813997864723,,,,,,,,,,,,,,,,,,,,,,,,,,,,,,,,,,,,002,001,2023-11-15_15h59.38.773,ETproject_Chi_2023.1.1,2023.1.1,59.99934007208213,
16,Month,六月,八月,,Hori,late,right,image/Chi_late.png,"[-0.4, 0]","[0.4, 0]",2,congruent,,,,,,,,,,,,,,0,40,40,30,,,,,,,,,,,,,,,,,,,,,,,,,,,,,,,,,,,,,,,,,,,,,,,,,,,,,,309.32512649986893,1.0124805001541972,310.41406730003655,310.3308240994811,311.2139243995771,311.3137075994164,311.3137075994164,311.3137075994164,right,1,0.6479569999501109,,,,,,,,,,,,,,,,,,,,,,,,,,,,,,,,,,,,002,001,2023-11-15_15h59.38.773,ETproject_Chi_2023.1.1,2023.1.1,59.99934007208213,
107,Week,星期四,星期六,,Hori,late,right,image/Chi_late.png,"[-0.4, 0]","[0.4, 0]",2,congruent,,,,,,,,,,,,,,0,41,41,16,,,,,,,,,,,,,,,,,,,,,,,,,,,,,,,,,,,,,,,,,,,,,,,,,,,,,,311.9895812999457,1.01283620018512,313.0798960002139,312.99672789964825,313.8796902000904,313.979684099555,313.979684099555,313.979684099555,right,1,1.5004400992766023,,,,,,,,,,,,,,,,,,,,,,,,,,,,,,,,,,,,002,001,2023-11-15_15h59.38.773,ETproject_Chi_2023.1.1,2023.1.1,59.99934007208213,
34,Month,六月,二月,,Hori,early,right,image/Chi_early.png,"[-0.4, 0]","[0.4, 0]",4,incongruent,,,,,,,,,,,,,,0,42,42,21,,,,,,,,,,,,,,,,,,,,,,,,,,,,,,,,,,,,,,,,,,,,,,,,,,,,,,315.52477919962257,1.010390699841082,316.6120235994458,316.5287506999448,317.4118069000542,317.51192620024085,317.51192620024085,317.51192620024085,right,1,1.7282416997477412,,,,,,,,,,,,,,,,,,,,,,,,,,,,,,,,,,,,002,001,2023-11-15_15h59.38.773,ETproject_Chi_2023.1.1,2023.1.1,59.99934007208213,
116,Week,星期六,星期日,,Vert,early,up,image/Chi_early.png,"[0, 0.4]","[0, -0.4]",1,congruent,,,,,,,,,,,,,,0,43,43,10,,,,,,,,,,,,,,,,,,,,,,,,,,,,,,,,,,,,,,,,,,,,,,,,,,,,,,319.2652484001592,1.0156112993136048,320.36081389989704,320.2775245998055,321.16053340025246,321.26062959991395,321.26062959991395,321.26062959991395,up,1,1.0122262993827462,,,,,,,,,,,,,,,,,,,,,,,,,,,,,,,,,,,,002,001,2023-11-15_15h59.38.773,ETproject_Chi_2023.1.1,2023.1.1,59.99934007208213,
150,Week,星期六,星期五,,Vert,late,up,image/Chi_late.png,"[0, 0.4]","[0, -0.4]",1,incongruent,,,,,,,,,,,,,,0,44,44,23,,,,,,,,,,,,,,,,,,,,,,,,,,,,,,,,,,,,,,,,,,,,,,,,,,,,,,322.30541890021414,1.0151799004524946,323.39309909939766,323.3099318994209,324.1928436998278,324.2929202998057,324.2929202998057,324.2929202998057,up,1,0.8675605999305844,,,,,,,,,,,,,,,,,,,,,,,,,,,,,,,,,,,,002,001,2023-11-15_15h59.38.773,ETproject_Chi_2023.1.1,2023.1.1,59.99934007208213,
59,Month,七月,三月,,Vert,late,up,image/Chi_late.png,"[0, 0.4]","[0, -0.4]",4,incongruent,,,,,,,,,,,,,,0,45,45,47,,,,,,,,,,,,,,,,,,,,,,,,,,,,,,,,,,,,,,,,,,,,,,,,,,,,,,325.2053530002013,1.0113888997584581,326.2921693995595,326.20903140027076,327.09194489941,327.19211179949343,327.19211179949343,327.19211179949343,up,1,0.7604858996346593,,,,,,,,,,,,,,,,,,,,,,,,,,,,,,,,,,,,002,001,2023-11-15_15h59.38.773,ETproject_Chi_2023.1.1,2023.1.1,59.99934007208213,
101,Week,星期五,星期六,,Hori,early,left,image/Chi_early.png,"[-0.4, 0]","[0.4, 0]",1,congruent,,,,,,,,,,,,,,0,46,46,42,,,,,,,,,,,,,,,,,,,,,,,,,,,,,,,,,,,,,,,,,,,,,,,,,,,,,,327.9937713993713,1.0105865001678467,329.0745861995965,329.0079015996307,329.8743209997192,329.97432549949735,329.97432549949735,329.97432549949735,left,1,1.0665194997563958,,,,,,,,,,,,,,,,,,,,,,,,,,,,,,,,,,,,002,001,2023-11-15_15h59.38.773,ETproject_Chi_2023.1.1,2023.1.1,59.99934007208213,
1,Month,一月,二月 ,,Hori,early,left,image/Chi_early.png,"[-0.4, 0]","[0.4, 0]",1,congruent,,,,,,,,,,,,,,0,47,47,28,,,,,,,,,,,,,,,,,,,,,,,,,,,,,,,,,,,,,,,,,,,,,,,,,,,,,,331.06647969968617,1.0104769999161363,332.1569194002077,332.0735585996881,332.9565936997533,333.056671500206,333.056671500206,333.056671500206,left,1,0.7434069998562336,,,,,,,,,,,,,,,,,,,,,,,,,,,,,,,,,,,,002,001,2023-11-15_15h59.38.773,ETproject_Chi_2023.1.1,2023.1.1,59.99934007208213,
118,Week,星期一,星期四,,Vert,late,down,image/Chi_late.png,"[0, 0.4]","[0, -0.4]",3,congruent,,,,,,,,,,,,,,0,48,48,45,,,,,,,,,,,,,,,,,,,,,,,,,,,,,,,,,,,,,,,,,,,,,,,,,,,,,,333.8373790998012,1.0093315998092294,334.92252840008587,334.8395341997966,335.7222442999482,335.82245260011405,335.82245260011405,335.82245260011405,down,1,0.8904194999486208,,,,,,,,,,,,,,,,,,,,,,,,,,,,,,,,,,,,002,001,2023-11-15_15h59.38.773,ETproject_Chi_2023.1.1,2023.1.1,59.99934007208213,
62,Month,十月 ,六月,,Vert,late,up,image/Chi_late.png,"[0, 0.4]","[0, -0.4]",4,incongruent,,,,,,,,,,,,,,0,49,49,27,,,,,,,,,,,,,,,,,,,,,,,,,,,,,,,,,,,,,,,,,,,,,,,,,,,,,,336.74571860022843,0.9990059994161129,337.83831629995257,337.7548198001459,338.63825580012053,338.7381148999557,338.7381148999557,338.7381148999557,up,1,0.7598655996844172,,,,,,,,,,,,,,,,,,,,,,,,,,,,,,,,,,,,002,001,2023-11-15_15h59.38.773,ETproject_Chi_2023.1.1,2023.1.1,59.99934007208213,
,,,,,,,,,,,,,,,,,,,,,,,,,,,,,,,,,,,,,,,,,,,,,,,,,,,,,,,,,,,,,,,,,,,,,,,,,,,,,,,,,,,,,,,,,,,,,,339.5214903000742,339.5214903000742,space,9.230541300028563,,,,,,,,,,,,,,,,,,,,,,,,,,,,,,,,002,001,2023-11-15_15h59.38.773,ETproject_Chi_2023.1.1,2023.1.1,59.99934007208213,
,,,,,,,,,,,,,Spring 1.jpg,这是春天吗？,是,Left,Break_material/Image/Spring 1.jpg,,,,,,,,,,,,,0,0,0,0,,,,,,,,,,,,,,,,,,,,,,,,,,,,,,,,,,,,,,,,,,,,,,,,,,,,,,,,,,,,,,,,,348.92620559968054,352.7534215999767,352.9334023995325,354.766000200063,354.766000200063,354.766000200063,354.766000200063,left,0,1.6586357997730374,,,,,,,,,,,,,,,,,,,,,,002,001,2023-11-15_15h59.38.773,ETproject_Chi_2023.1.1,2023.1.1,59.99934007208213,
,,,,,,,,,,,,,Spring 5.jpg,这是冬天吗？,否,Right,Break_material/Image/Spring 5.jpg,,,,,,,,,,,,,0,1,1,4,,,,,,,,,,,,,,,,,,,,,,,,,,,,,,,,,,,,,,,,,,,,,,,,,,,,,,,,,,,,,,,,,356.95804610010237,360.43638699967414,360.96418919973075,362.44682629965246,362.44682629965246,362.44682629965246,362.44682629965246,right,0,0.5372509993612766,,,,,,,,,,,,,,,,,,,,,,002,001,2023-11-15_15h59.38.773,ETproject_Chi_2023.1.1,2023.1.1,59.99934007208213,
,,,,,,,,,,,,,Spring 3.jpg,这是夏天吗？,否,Right,Break_material/Image/Spring 3.jpg,,,,,,,,,,,,,0,2,2,2,,,,,,,,,,,,,,,,,,,,,,,,,,,,,,,,,,,,,,,,,,,,,,,,,,,,,,,,,,,,,,,,,363.3389419997111,366.9988107001409,367.34511419944465,369.0110985999927,369.0110985999927,369.0110985999927,369.0110985999927,right,0,0.43746479973196983,,,,,,,,,,,,,,,,,,,,,,002,001,2023-11-15_15h59.38.773,ETproject_Chi_2023.1.1,2023.1.1,59.99934007208213,
,,,,,,,,,,,,,Spring 6.jpg,这是春天吗？,是,Left,Break_material/Image/Spring 6.jpg,,,,,,,,,,,,,0,3,3,5,,,,,,,,,,,,,,,,,,,,,,,,,,,,,,,,,,,,,,,,,,,,,,,,,,,,,,,,,,,,,,,,,370.11684670019895,373.46483050007373,374.12652259971946,375.47597429994494,375.47597429994494,375.47597429994494,375.47597429994494,left,0,0.46153640002012253,,,,,,,,,,,,,,,,,,,,,,002,001,2023-11-15_15h59.38.773,ETproject_Chi_2023.1.1,2023.1.1,59.99934007208213,
,,,,,,,,,,,,,Spring 2.jpg,这是冬天吗？,否,Right,Break_material/Image/Spring 2.jpg,,,,,,,,,,,,,0,4,4,1,,,,,,,,,,,,,,,,,,,,,,,,,,,,,,,,,,,,,,,,,,,,,,,,,,,,,,,,,,,,,,,,,376.2697644997388,379.94432900007814,380.2740797000006,381.9569627000019,381.9569627000019,381.9569627000019,381.9569627000019,right,0,0.3483411995694041,,,,,,,,,,,,,,,,,,,,,,002,001,2023-11-15_15h59.38.773,ETproject_Chi_2023.1.1,2023.1.1,59.99934007208213,
,,,,,,,,,,,,,Spring 4.jpg,这是秋天吗？,否,Right,Break_material/Image/Spring 4.jpg,,,,,,,,,,,,,0,5,5,3,,,,,,,,,,,,,,,,,,,,,,,,,,,,,,,,,,,,,,,,,,,,,,,,,,,,,,,,,,,,,,,,,382.5887664994225,386.30966169945896,386.5887668998912,388.3214544998482,388.3214544998482,388.3214544998482,388.3214544998482,right,0,0.44749659951776266,,,,,,,,,,,,,,,,,,,,,,002,001,2023-11-15_15h59.38.773,ETproject_Chi_2023.1.1,2023.1.1,59.99934007208213,
,,,,,,,,,,,,,,,,,,,,,,,,,,,,,,,,,,,,,,,,,,,,,,,,,,,,,,,,,,,,,,,,,,,,,,,,,,,,,,,,,,,,,,,,,,,,,,,,,,,,,,,,,,,,388.7884553000331,388.7884553000331,space,2.948039999231696,,,,,,,,,,,,,,,,,,002,001,2023-11-15_15h59.38.773,ETproject_Chi_2023.1.1,2023.1.1,59.99934007208213,
126,Week,星期五,星期二,,Hori,early,right,image/Chi_early.png,"[-0.4, 0]","[0.4, 0]",3,incongruent,,,,,,,,,,,,,,,,,,,,,,0,0,0,17,,,,,,,,,,,,,,,,,,,,,,,,,,,,,,,,,,,,,,,,,,,,,,391.80574329942465,0.9992560995742679,392.85335069987923,392.819937299937,393.6530473995954,393.7530990000814,393.7530990000814,393.7530990000814,right,1,0.7511668996885419,,,,,,,,,,,,,,,,,,,,,,,,,,,,,,,,,,,,002,001,2023-11-15_15h59.38.773,ETproject_Chi_2023.1.1,2023.1.1,59.99934007208213,
16,Month,七月,十月 ,,Hori,late,right,image/Chi_late.png,"[-0.4, 0]","[0.4, 0]",3,congruent,,,,,,,,,,,,,,,,,,,,,,0,1,1,43,,,,,,,,,,,,,,,,,,,,,,,,,,,,,,,,,,,,,,,,,,,,,,394.5480701001361,1.010720300488174,395.63567840028554,395.55241370014846,396.4354203995317,396.53542429953814,396.53542429953814,396.53542429953814,right,1,0.9455279996618629,,,,,,,,,,,,,,,,,,,,,,,,,,,,,,,,,,,,002,001,2023-11-15_15h59.38.773,ETproject_Chi_2023.1.1,2023.1.1,59.99934007208213,
82,Month,六月,五月,,Vert,late,up,image/Chi_late.png,"[0, 0.4]","[0, -0.4]",1,incongruent,,,,,,,,,,,,,,,,,,,,,,0,2,2,33,,,,,,,,,,,,,,,,,,,,,,,,,,,,,,,,,,,,,,,,,,,,,,397.51164789963514,1.0111113004386425,398.6014906000346,398.5181521996856,399.4012193996459,399.5012154998258,399.5012154998258,399.5012154998258,up,1,2.0275721000507474,,,,,,,,,,,,,,,,,,,,,,,,,,,,,,,,,,,,002,001,2023-11-15_15h59.38.773,ETproject_Chi_2023.1.1,2023.1.1,59.99934007208213,
142,Week,星期日,星期四,,Vert,early,down,image/Chi_early.png,"[0, 0.4]","[0, -0.4]",3,incongruent,,,,,,,,,,,,,,,,,,,,,,0,3,3,35,,,,,,,,,,,,,,,,,,,,,,,,,,,,,,,,,,,,,,,,,,,,,,401.5617245994508,1.0140152992680669,402.65009570028633,402.56677469983697,403.45003309939057,403.5498468996957,403.5498468996957,403.5498468996957,down,1,2.107251800596714,,,,,,,,,,,,,,,,,,,,,,,,,,,,,,,,,,,,002,001,2023-11-15_15h59.38.773,ETproject_Chi_2023.1.1,2023.1.1,59.99934007208213,
39,Month,九月 ,十一月 ,,Vert,late,down,image/Chi_late.png,"[0, 0.4]","[0, -0.4]",2,congruent,,,,,,,,,,,,,,,,,,,,,,0,4,4,14,,,,,,,,,,,,,,,,,,,,,,,,,,,,,,,,,,,,,,,,,,,,,,405.69426969997585,1.010651900433004,406.78218169976026,406.6988477995619,407.58166419994086,407.6817495999858,407.6817495999858,407.6817495999858,down,1,1.2061660001054406,,,,,,,,,,,,,,,,,,,,,,,,,,,,,,,,,,,,002,001,2023-11-15_15h59.38.773,ETproject_Chi_2023.1.1,2023.1.1,59.99934007208213,
2,Month,二月,五月,,Hori,early,left,image/Chi_early.png,"[-0.4, 0]","[0.4, 0]",3,congruent,,,,,,,,,,,,,,,,,,,,,,0,5,5,36,,,,,,,,,,,,,,,,,,,,,,,,,,,,,,,,,,,,,,,,,,,,,,408.93017159961164,1.011018200777471,410.01427179947495,409.9309585997835,410.8140941001475,410.9140817997977,410.9140817997977,410.9140817997977,left,1,0.8070890000090003,,,,,,,,,,,,,,,,,,,,,,,,,,,,,,,,,,,,002,001,2023-11-15_15h59.38.773,ETproject_Chi_2023.1.1,2023.1.1,59.99934007208213,
141,Week,星期六,星期三 ,,Vert,early,down,image/Chi_early.png,"[0, 0.4]","[0, -0.4]",3,incongruent,,,,,,,,,,,,,,,,,,,,,,0,6,6,29,,,,,,,,,,,,,,,,,,,,,,,,,,,,,,,,,,,,,,,,,,,,,,411.75601040013134,1.0122648999094963,412.84669080004096,412.76335289981216,413.6463799001649,413.74649519938976,413.74649519938976,413.74649519938976,down,1,0.9178714994341135,,,,,,,,,,,,,,,,,,,,,,,,,,,,,,,,,,,,002,001,2023-11-15_15h59.38.773,ETproject_Chi_2023.1.1,2023.1.1,59.99934007208213,
18,Month,九月 ,十二月,,Hori,late,right,image/Chi_late.png,"[-0.4, 0]","[0.4, 0]",3,congruent,,,,,,,,,,,,,,,,,,,,,,0,7,7,9,,,,,,,,,,,,,,,,,,,,,,,,,,,,,,,,,,,,,,,,,,,,,,414.70737239997834,1.0106442999094725,415.79593240004033,415.7123916000128,416.5954962996766,416.6954487999901,416.6954487999901,416.6954487999901,right,1,0.921811499632895,,,,,,,,,,,,,,,,,,,,,,,,,,,,,,,,,,,,002,001,2023-11-15_15h59.38.773,ETproject_Chi_2023.1.1,2023.1.1,59.99934007208213,
84,Month,八月,七月,,Vert,late,up,image/Chi_late.png,"[0, 0.4]","[0, -0.4]",1,incongruent,,,,,,,,,,,,,,,,,,,,,,0,8,8,18,,,,,,,,,,,,,,,,,,,,,,,,,,,,,,,,,,,,,,,,,,,,,,417.65357290022075,1.0128413001075387,418.7447323994711,418.6614415999502,419.5444446997717,419.64454980008304,419.64454980008304,419.64454980008304,up,1,0.7883865004405379,,,,,,,,,,,,,,,,,,,,,,,,,,,,,,,,,,,,002,001,2023-11-15_15h59.38.773,ETproject_Chi_2023.1.1,2023.1.1,59.99934007208213,
46,Month,八月,六月,,Hori,early,right,image/Chi_early.png,"[-0.4, 0]","[0.4, 0]",2,incongruent,,,,,,,,,,,,,,,,,,,,,,0,9,9,6,,,,,,,,,,,,,,,,,,,,,,,,,,,,,,,,,,,,,,,,,,,,,,420.4709898997098,1.0142461005598307,421.56063190009445,421.4772189995274,422.36032370012254,422.4602844994515,422.4602844994515,422.4602844994515,right,1,0.7015094999223948,,,,,,,,,,,,,,,,,,,,,,,,,,,,,,,,,,,,002,001,2023-11-15_15h59.38.773,ETproject_Chi_2023.1.1,2023.1.1,59.99934007208213,
6,Month,六月,九月 ,,Hori,early,left,image/Chi_early.png,"[-0.4, 0]","[0.4, 0]",3,congruent,,,,,,,,,,,,,,,,,,,,,,0,10,10,25,,,,,,,,,,,,,,,,,,,,,,,,,,,,,,,,,,,,,,,,,,,,,,423.2024371996522,1.011459699831903,424.2929223002866,424.20968129951507,425.09266659989953,425.1926384996623,425.1926384996623,425.1926384996623,left,1,0.7684925999492407,,,,,,,,,,,,,,,,,,,,,,,,,,,,,,,,,,,,002,001,2023-11-15_15h59.38.773,ETproject_Chi_2023.1.1,2023.1.1,59.99934007208213,
16,Month,八月,十二月,,Hori,late,right,image/Chi_late.png,"[-0.4, 0]","[0.4, 0]",4,congruent,,,,,,,,,,,,,,,,,,,,,,0,11,11,27,,,,,,,,,,,,,,,,,,,,,,,,,,,,,,,,,,,,,,,,,,,,,,426.0013569993898,1.0137195000424981,427.09204529970884,427.0088039999828,427.89179109968245,427.99202269967645,427.99202269967645,427.99202269967645,right,1,1.0088472990319133,,,,,,,,,,,,,,,,,,,,,,,,,,,,,,,,,,,,002,001,2023-11-15_15h59.38.773,ETproject_Chi_2023.1.1,2023.1.1,59.99934007208213,
108,Week,星期五,星期六,,Hori,late,right,image/Chi_late.png,"[-0.4, 0]","[0.4, 0]",1,congruent,,,,,,,,,,,,,,,,,,,,,,0,12,12,1,,,,,,,,,,,,,,,,,,,,,,,,,,,,,,,,,,,,,,,,,,,,,,429.0336159002036,1.0108946999534965,430.12427300028503,430.04115239996463,430.92414879985154,431.0240254998207,431.0240254998207,431.0240254998207,right,1,0.8478018995374441,,,,,,,,,,,,,,,,,,,,,,,,,,,,,,,,,,,,002,001,2023-11-15_15h59.38.773,ETproject_Chi_2023.1.1,2023.1.1,59.99934007208213,
114,Week,星期四,星期五,,Vert,early,up,image/Chi_early.png,"[0, 0.4]","[0, -0.4]",1,congruent,,,,,,,,,,,,,,,,,,,,,,0,13,13,10,,,,,,,,,,,,,,,,,,,,,,,,,,,,,,,,,,,,,,,,,,,,,,431.90240199957043,1.0156813003122807,432.99026979971677,432.90677709970623,433.7897621002048,433.88974259980023,433.88974259980023,433.88974259980023,up,1,0.7197246998548508,,,,,,,,,,,,,,,,,,,,,,,,,,,,,,,,,,,,002,001,2023-11-15_15h59.38.773,ETproject_Chi_2023.1.1,2023.1.1,59.99934007208213,
43,Month,十月 ,七月,,Hori,early,right,image/Chi_early.png,"[-0.4, 0]","[0.4, 0]",3,incongruent,,,,,,,,,,,,,,,,,,,,,,0,14,14,7,,,,,,,,,,,,,,,,,,,,,,,,,,,,,,,,,,,,,,,,,,,,,,434.6471240995452,1.013112399727106,435.7391854999587,435.6559135997668,436.538956400007,436.6388465994969,436.6388465994969,436.6388465994969,right,1,0.9453862998634577,,,,,,,,,,,,,,,,,,,,,,,,,,,,,,,,,,,,002,001,2023-11-15_15h59.38.773,ETproject_Chi_2023.1.1,2023.1.1,59.99934007208213,
57,Month,六月,三月,,Vert,early,down,image/Chi_early.png,"[0, 0.4]","[0, -0.4]",3,incongruent,,,,,,,,,,,,,,,,,,,,,,0,15,15,4,,,,,,,,,,,,,,,,,,,,,,,,,,,,,,,,,,,,,,,,,,,,,,437.614396000281,1.0102841993793845,438.70480549987406,438.62158329971135,439.504443500191,439.6045757997781,439.6045757997781,439.6045757997781,down,1,0.7720612995326519,,,,,,,,,,,,,,,,,,,,,,,,,,,,,,,,,,,,002,001,2023-11-15_15h59.38.773,ETproject_Chi_2023.1.1,2023.1.1,59.99934007208213,
23,Month,一月,二月 ,,Vert,early,up,image/Chi_early.png,"[0, 0.4]","[0, -0.4]",1,congruent,,,,,,,,,,,,,,,,,,,,,,0,16,16,30,,,,,,,,,,,,,,,,,,,,,,,,,,,,,,,,,,,,,,,,,,,,,,440.4157293997705,1.0109442006796598,441.50403309985995,441.42065009940416,442.3036314994097,442.40377019997686,442.40377019997686,442.40377019997686,up,1,0.652432699687779,,,,,,,,,,,,,,,,,,,,,,,,,,,,,,,,,,,,002,001,2023-11-15_15h59.38.773,ETproject_Chi_2023.1.1,2023.1.1,59.99934007208213,
59,Month,五月,四月,,Hori,late,left,image/Chi_late.png,"[-0.4, 0]","[0.4, 0]",1,incongruent,,,,,,,,,,,,,,,,,,,,,,0,17,17,12,,,,,,,,,,,,,,,,,,,,,,,,,,,,,,,,,,,,,,,,,,,,,,443.0943454997614,0.9990382995456457,444.1862479997799,444.1029410995543,444.98620249982923,445.08606179989874,445.08606179989874,445.08606179989874,left,1,1.089975199662149,,,,,,,,,,,,,,,,,,,,,,,,,,,,,,,,,,,,002,001,2023-11-15_15h59.38.773,ETproject_Chi_2023.1.1,2023.1.1,59.99934007208213,
55,Month,四月,一月,,Vert,early,down,image/Chi_early.png,"[0, 0.4]","[0, -0.4]",3,incongruent,,,,,,,,,,,,,,,,,,,,,,0,18,18,22,,,,,,,,,,,,,,,,,,,,,,,,,,,,,,,,,,,,,,,,,,,,,,446.2112082000822,0.9992845999076962,447.30211449973285,447.2186970002949,448.101760099642,448.2017029002309,448.2017029002309,448.2017029002309,down,1,0.8466472001746297,,,,,,,,,,,,,,,,,,,,,,,,,,,,,,,,,,,,002,001,2023-11-15_15h59.38.773,ETproject_Chi_2023.1.1,2023.1.1,59.99934007208213,
26,Month,八月,十一月 ,,Vert,early,up,image/Chi_early.png,"[0, 0.4]","[0, -0.4]",3,congruent,,,,,,,,,,,,,,,,,,,,,,0,19,19,44,,,,,,,,,,,,,,,,,,,,,,,,,,,,,,,,,,,,,,,,,,,,,,449.07617469970137,1.0118968999013305,450.16768439952284,450.08432389982045,450.96759520005435,451.0675420993939,451.0675420993939,451.0675420993939,up,1,1.0129968002438545,,,,,,,,,,,,,,,,,,,,,,,,,,,,,,,,,,,,002,001,2023-11-15_15h59.38.773,ETproject_Chi_2023.1.1,2023.1.1,59.99934007208213,
72,Month,四月,二月,,Vert,late,up,image/Chi_late.png,"[0, 0.4]","[0, -0.4]",2,incongruent,,,,,,,,,,,,,,,,,,,,,,0,20,20,41,,,,,,,,,,,,,,,,,,,,,,,,,,,,,,,,,,,,,,,,,,,,,,452.11054109968245,1.0134383998811245,453.20012999977916,453.1169416997582,454.0000697001815,454.0997439995408,454.0997439995408,454.0997439995408,up,1,0.9326030993834138,,,,,,,,,,,,,,,,,,,,,,,,,,,,,,,,,,,,002,001,2023-11-15_15h59.38.773,ETproject_Chi_2023.1.1,2023.1.1,59.99934007208213,
102,Week,星期六,星期日,,Hori,early,left,image/Chi_early.png,"[-0.4, 0]","[0.4, 0]",1,congruent,,,,,,,,,,,,,,,,,,,,,,0,21,21,15,,,,,,,,,,,,,,,,,,,,,,,,,,,,,,,,,,,,,,,,,,,,,,455.06000929977745,1.0114655997604132,456.1492849998176,456.0657430002466,456.9490562994033,457.0489727994427,457.0489727994427,457.0489727994427,left,1,0.975492199882865,,,,,,,,,,,,,,,,,,,,,,,,,,,,,,,,,,,,002,001,2023-11-15_15h59.38.773,ETproject_Chi_2023.1.1,2023.1.1,59.99934007208213,
61,Month,十月 ,七月,,Vert,early,down,image/Chi_early.png,"[0, 0.4]","[0, -0.4]",3,incongruent,,,,,,,,,,,,,,,,,,,,,,0,22,22,16,,,,,,,,,,,,,,,,,,,,,,,,,,,,,,,,,,,,,,,,,,,,,,458.0551359998062,1.0124671999365091,459.14826050028205,459.0649189995602,459.94807850010693,460.0481623997912,460.0481623997912,460.0481623997912,down,1,0.8417145991697907,,,,,,,,,,,,,,,,,,,,,,,,,,,,,,,,,,,,002,001,2023-11-15_15h59.38.773,ETproject_Chi_2023.1.1,2023.1.1,59.99934007208213,
53,Month,五月,三月,,Hori,late,left,image/Chi_late.png,"[-0.4, 0]","[0.4, 0]",2,incongruent,,,,,,,,,,,,,,,,,,,,,,0,23,23,2,,,,,,,,,,,,,,,,,,,,,,,,,,,,,,,,,,,,,,,,,,,,,,460.9276099996641,1.0108752995729446,462.01405869983137,461.9308486999944,462.81377770006657,462.9138060994446,462.9138060994446,462.9138060994446,left,1,0.9679105998948216,,,,,,,,,,,,,,,,,,,,,,,,,,,,,,,,,,,,002,001,2023-11-15_15h59.38.773,ETproject_Chi_2023.1.1,2023.1.1,59.99934007208213,
48,Month,十月 ,八月,,Hori,early,right,image/Chi_early.png,"[-0.4, 0]","[0.4, 0]",2,incongruent,,,,,,,,,,,,,,,,,,,,,,0,24,24,32,,,,,,,,,,,,,,,,,,,,,,,,,,,,,,,,,,,,,,,,,,,,,,463.92394160013646,1.0119750993326306,465.0128792999312,464.92996979970485,465.8127942001447,465.9128246996552,465.9128246996552,465.9128246996552,right,1,1.2086816998198628,,,,,,,,,,,,,,,,,,,,,,,,,,,,,,,,,,,,002,001,2023-11-15_15h59.38.773,ETproject_Chi_2023.1.1,2023.1.1,59.99934007208213,
42,Month,九月 ,十月 ,,Vert,late,down,image/Chi_late.png,"[0, 0.4]","[0, -0.4]",1,congruent,,,,,,,,,,,,,,,,,,,,,,0,25,25,0,,,,,,,,,,,,,,,,,,,,,,,,,,,,,,,,,,,,,,,,,,,,,,467.15805619955063,1.0106359999626875,468.245364099741,468.16203689947724,469.0450046993792,469.1450808001682,469.1450808001682,469.1450808001682,down,1,1.0951591990888119,,,,,,,,,,,,,,,,,,,,,,,,,,,,,,,,,,,,002,001,2023-11-15_15h59.38.773,ETproject_Chi_2023.1.1,2023.1.1,59.99934007208213,
1,Month,一月,四月,,Hori,early,left,image/Chi_early.png,"[-0.4, 0]","[0.4, 0]",3,congruent,,,,,,,,,,,,,,,,,,,,,,0,26,26,34,,,,,,,,,,,,,,,,,,,,,,,,,,,,,,,,,,,,,,,,,,,,,,470.2794778998941,1.0116605004295707,471.36117209959775,471.27780489996076,472.1609012996778,472.26071979943663,472.26071979943663,472.26071979943663,left,1,0.6923235999420285,,,,,,,,,,,,,,,,,,,,,,,,,,,,,,,,,,,,002,001,2023-11-15_15h59.38.773,ETproject_Chi_2023.1.1,2023.1.1,59.99934007208213,
14,Month,四月,六月,,Hori,late,right,image/Chi_late.png,"[-0.4, 0]","[0.4, 0]",2,congruent,,,,,,,,,,,,,,,,,,,,,,0,27,27,26,,,,,,,,,,,,,,,,,,,,,,,,,,,,,,,,,,,,,,,,,,,,,,472.9844816001132,0.9990111999213696,474.0769103001803,473.993439800106,474.8764236997813,474.9765692995861,474.9765692995861,474.9765692995861,right,1,0.7844711001962423,,,,,,,,,,,,,,,,,,,,,,,,,,,,,,,,,,,,002,001,2023-11-15_15h59.38.773,ETproject_Chi_2023.1.1,2023.1.1,59.99934007208213,
21,Month,五月,九月 ,,Vert,early,up,image/Chi_early.png,"[0, 0.4]","[0, -0.4]",4,congruent,,,,,,,,,,,,,,,,,,,,,,0,28,28,46,,,,,,,,,,,,,,,,,,,,,,,,,,,,,,,,,,,,,,,,,,,,,,475.8054665001109,1.0124091003090143,476.8924990994856,476.809154599905,477.69225639943033,477.7921772999689,477.7921772999689,477.7921772999689,up,1,0.8078375989571214,,,,,,,,,,,,,,,,,,,,,,,,,,,,,,,,,,,,002,001,2023-11-15_15h59.38.773,ETproject_Chi_2023.1.1,2023.1.1,59.99934007208213,
25,Month,一月,五月,,Vert,late,down,image/Chi_late.png,"[0, 0.4]","[0, -0.4]",4,congruent,,,,,,,,,,,,,,,,,,,,,,0,29,29,23,,,,,,,,,,,,,,,,,,,,,,,,,,,,,,,,,,,,,,,,,,,,,,478.6397930998355,1.0107670994475484,479.7246687998995,479.64150409959257,480.52450990024954,480.62454899959266,480.62454899959266,480.62454899959266,down,1,0.7762491991743445,,,,,,,,,,,,,,,,,,,,,,,,,,,,,,,,,,,,002,001,2023-11-15_15h59.38.773,ETproject_Chi_2023.1.1,2023.1.1,59.99934007208213,
7,Month,七月,十一月 ,,Hori,early,left,image/Chi_early.png,"[-0.4, 0]","[0.4, 0]",4,congruent,,,,,,,,,,,,,,,,,,,,,,0,30,30,49,,,,,,,,,,,,,,,,,,,,,,,,,,,,,,,,,,,,,,,,,,,,,,481.44156940001994,1.0133196990936995,482.5239439997822,482.4408960994333,483.3235895000398,483.42367780022323,483.42367780022323,483.42367780022323,left,1,0.6169127002358437,,,,,,,,,,,,,,,,,,,,,,,,,,,,,,,,,,,,002,001,2023-11-15_15h59.38.773,ETproject_Chi_2023.1.1,2023.1.1,59.99934007208213,
98,Week,星期二,星期五,,Hori,early,left,image/Chi_early.png,"[-0.4, 0]","[0.4, 0]",3,congruent,,,,,,,,,,,,,,,,,,,,,,0,31,31,39,,,,,,,,,,,,,,,,,,,,,,,,,,,,,,,,,,,,,,,,,,,,,,484.0620575994253,1.015183100476861,485.1564518995583,485.0731545994058,485.9561642995104,486.05622849985957,486.05622849985957,486.05622849985957,left,1,0.8173444997519255,,,,,,,,,,,,,,,,,,,,,,,,,,,,,,,,,,,,002,001,2023-11-15_15h59.38.773,ETproject_Chi_2023.1.1,2023.1.1,59.99934007208213,
11,Month,十一月 ,十二月,,Hori,early,left,image/Chi_early.png,"[-0.4, 0]","[0.4, 0]",1,congruent,,,,,,,,,,,,,,,,,,,,,,0,32,32,28,,,,,,,,,,,,,,,,,,,,,,,,,,,,,,,,,,,,,,,,,,,,,,487.91026510018855,1.0151249999180436,489.00521850027144,488.92184269987047,489.80490829981863,489.90470619965345,489.90470619965345,489.90470619965345,up,0,1.1591755002737045,,,,,,,,,,,,,,,,,,,,,,,,,,,,,,,,,,,,002,001,2023-11-15_15h59.38.773,ETproject_Chi_2023.1.1,2023.1.1,59.99934007208213,
111,Week,星期一,星期三 ,,Vert,early,up,image/Chi_early.png,"[0, 0.4]","[0, -0.4]",2,congruent,,,,,,,,,,,,,,,,,,,,,,0,33,33,8,,,,,,,,,,,,,,,,,,,,,,,,,,,,,,,,,,,,,,,,,,,,,,492.0953791998327,1.01461820024997,493.18714919965714,493.1038464996964,493.9868695996702,494.08691009972245,494.08691009972245,494.08691009972245,up,1,1.0979423001408577,,,,,,,,,,,,,,,,,,,,,,,,,,,,,,,,,,,,002,001,2023-11-15_15h59.38.773,ETproject_Chi_2023.1.1,2023.1.1,59.99934007208213,
60,Month,十二月,十月 ,,Hori,late,left,image/Chi_late.png,"[-0.4, 0]","[0.4, 0]",2,incongruent,,,,,,,,,,,,,,,,,,,,,,0,34,34,45,,,,,,,,,,,,,,,,,,,,,,,,,,,,,,,,,,,,,,,,,,,,,,496.2155015002936,1.014746000058949,497.30231459997594,497.2192075997591,498.1021459000185,498.2022278001532,498.2022278001532,498.2022278001532,left,1,0.9819245999678969,,,,,,,,,,,,,,,,,,,,,,,,,,,,,,,,,,,,002,001,2023-11-15_15h59.38.773,ETproject_Chi_2023.1.1,2023.1.1,59.99934007208213,
34,Month,四月,六月,,Vert,late,down,image/Chi_late.png,"[0, 0.4]","[0, -0.4]",2,congruent,,,,,,,,,,,,,,,,,,,,,,0,35,35,38,,,,,,,,,,,,,,,,,,,,,,,,,,,,,,,,,,,,,,,,,,,,,,499.21135229989886,1.0108663002029061,500.3015513997525,500.2181051997468,501.1011175997555,501.2012275001034,501.2012275001034,501.2012275001034,down,1,0.9675476998090744,,,,,,,,,,,,,,,,,,,,,,,,,,,,,,,,,,,,002,001,2023-11-15_15h59.38.773,ETproject_Chi_2023.1.1,2023.1.1,59.99934007208213,
57,Month,三月,二月,,Hori,late,left,image/Chi_late.png,"[-0.4, 0]","[0.4, 0]",1,incongruent,,,,,,,,,,,,,,,,,,,,,,0,36,36,13,,,,,,,,,,,,,,,,,,,,,,,,,,,,,,,,,,,,,,,,,,,,,,502.2096755001694,1.0112591003999114,503.3004160998389,503.2169795995578,504.1001129997894,504.20018710009754,504.20018710009754,504.20018710009754,left,1,0.9364917995408177,,,,,,,,,,,,,,,,,,,,,,,,,,,,,,,,,,,,002,001,2023-11-15_15h59.38.773,ETproject_Chi_2023.1.1,2023.1.1,59.99934007208213,
29,Month,五月,九月 ,,Vert,late,down,image/Chi_late.png,"[0, 0.4]","[0, -0.4]",4,congruent,,,,,,,,,,,,,,,,,,,,,,0,37,37,21,,,,,,,,,,,,,,,,,,,,,,,,,,,,,,,,,,,,,,,,,,,,,,505.17299799993634,1.013488500379026,506.2661728998646,506.1830994999036,507.06603999994695,507.16585700027645,507.16585700027645,507.16585700027645,down,1,0.7950532995164394,,,,,,,,,,,,,,,,,,,,,,,,,,,,,,,,,,,,002,001,2023-11-15_15h59.38.773,ETproject_Chi_2023.1.1,2023.1.1,59.99934007208213,
99,Week,星期三 ,星期五,,Hori,early,left,image/Chi_early.png,"[-0.4, 0]","[0.4, 0]",2,congruent,,,,,,,,,,,,,,,,,,,,,,0,38,38,3,,,,,,,,,,,,,,,,,,,,,,,,,,,,,,,,,,,,,,,,,,,,,,507.9933140994981,0.9991963002830744,509.0819079000503,508.9986737994477,509.88164519984275,509.98161899950355,509.98161899950355,509.98161899950355,left,1,0.7072920994833112,,,,,,,,,,,,,,,,,,,,,,,,,,,,,,,,,,,,002,001,2023-11-15_15h59.38.773,ETproject_Chi_2023.1.1,2023.1.1,59.99934007208213,
134,Week,星期五,星期三 ,,Hori,late,left,image/Chi_late.png,"[-0.4, 0]","[0.4, 0]",2,incongruent,,,,,,,,,,,,,,,,,,,,,,0,39,39,47,,,,,,,,,,,,,,,,,,,,,,,,,,,,,,,,,,,,,,,,,,,,,,510.7259765993804,1.0132702002301812,511.81423689983785,511.7309951996431,512.6141337994486,512.7140152994543,512.7140152994543,512.7140152994543,left,1,0.830690199509263,,,,,,,,,,,,,,,,,,,,,,,,,,,,,,,,,,,,002,001,2023-11-15_15h59.38.773,ETproject_Chi_2023.1.1,2023.1.1,59.99934007208213,
21,Month,十月 ,十一月 ,,Hori,late,right,image/Chi_late.png,"[-0.4, 0]","[0.4, 0]",1,congruent,,,,,,,,,,,,,,,,,,,,,,0,40,40,5,,,,,,,,,,,,,,,,,,,,,,,,,,,,,,,,,,,,,,,,,,,,,,513.5730571998283,1.0114876003935933,514.6634186999872,514.5800145994872,515.4631536994129,515.5632386999205,515.5632386999205,515.5632386999205,right,1,0.7175399996340275,,,,,,,,,,,,,,,,,,,,,,,,,,,,,,,,,,,,002,001,2023-11-15_15h59.38.773,ETproject_Chi_2023.1.1,2023.1.1,59.99934007208213,
70,Month,十月 ,七月,,Vert,late,up,image/Chi_late.png,"[0, 0.4]","[0, -0.4]",3,incongruent,,,,,,,,,,,,,,,,,,,,,,0,41,41,19,,,,,,,,,,,,,,,,,,,,,,,,,,,,,,,,,,,,,,,,,,,,,,516.3237146995962,1.0115558002144098,517.4122804002836,517.32905319985,518.2120950995013,518.3121467996389,518.3121467996389,518.3121467996389,up,1,1.0809792997315526,,,,,,,,,,,,,,,,,,,,,,,,,,,,,,,,,,,,002,001,2023-11-15_15h59.38.773,ETproject_Chi_2023.1.1,2023.1.1,59.99934007208213,
126,Week,星期四,星期二,,Hori,early,right,image/Chi_early.png,"[-0.4, 0]","[0.4, 0]",2,incongruent,,,,,,,,,,,,,,,,,,,,,,0,42,42,24,,,,,,,,,,,,,,,,,,,,,,,,,,,,,,,,,,,,,,,,,,,,,,519.4250965993851,1.0103957001119852,520.5114498995245,520.428078699857,521.311102299951,521.411339700222,521.411339700222,521.411339700222,right,1,0.6060501001775265,,,,,,,,,,,,,,,,,,,,,,,,,,,,,,,,,,,,002,001,2023-11-15_15h59.38.773,ETproject_Chi_2023.1.1,2023.1.1,59.99934007208213,
68,Month,十月 ,八月,,Vert,early,down,image/Chi_early.png,"[0, 0.4]","[0, -0.4]",2,incongruent,,,,,,,,,,,,,,,,,,,,,,0,43,43,48,,,,,,,,,,,,,,,,,,,,,,,,,,,,,,,,,,,,,,,,,,,,,,522.0547092994675,1.0153858000412583,523.1438440000638,523.0606833994389,523.9436579002067,524.043589499779,524.043589499779,524.043589499779,down,1,0.7891021994873881,,,,,,,,,,,,,,,,,,,,,,,,,,,,,,,,,,,,002,001,2023-11-15_15h59.38.773,ETproject_Chi_2023.1.1,2023.1.1,59.99934007208213,
13,Month,二月,三月,,Hori,late,right,image/Chi_late.png,"[-0.4, 0]","[0.4, 0]",1,congruent,,,,,,,,,,,,,,,,,,,,,,0,44,44,42,,,,,,,,,,,,,,,,,,,,,,,,,,,,,,,,,,,,,,,,,,,,,,524.8736215997487,1.0109171997755766,525.9596958998591,525.8763247998431,526.7594606997445,526.8595270002261,526.8595270002261,526.8595270002261,right,1,0.7574918996542692,,,,,,,,,,,,,,,,,,,,,,,,,,,,,,,,,,,,002,001,2023-11-15_15h59.38.773,ETproject_Chi_2023.1.1,2023.1.1,59.99934007208213,
10,Month,二月,六月,,Hori,late,right,image/Chi_late.png,"[-0.4, 0]","[0.4, 0]",4,congruent,,,,,,,,,,,,,,,,,,,,,,0,45,45,37,,,,,,,,,,,,,,,,,,,,,,,,,,,,,,,,,,,,,,,,,,,,,,527.6513120001182,1.0105357998982072,528.7420846996829,528.6587212001905,529.5418863995001,529.6418955996633,529.6418955996633,529.6418955996633,right,1,0.7591092996299267,,,,,,,,,,,,,,,,,,,,,,,,,,,,,,,,,,,,002,001,2023-11-15_15h59.38.773,ETproject_Chi_2023.1.1,2023.1.1,59.99934007208213,
65,Month,七月,五月,,Vert,early,down,image/Chi_early.png,"[0, 0.4]","[0, -0.4]",2,incongruent,,,,,,,,,,,,,,,,,,,,,,0,46,46,11,,,,,,,,,,,,,,,,,,,,,,,,,,,,,,,,,,,,,,,,,,,,,,530.4319294001907,1.0156701002269983,531.5245318999514,531.441095800139,532.3241799995303,532.4240935994312,532.4240935994312,532.4240935994312,up,0,1.527763799764216,,,,,,,,,,,,,,,,,,,,,,,,,,,,,,,,,,,,002,001,2023-11-15_15h59.38.773,ETproject_Chi_2023.1.1,2023.1.1,59.99934007208213,
39,Month,十一月 ,七月,,Hori,early,right,image/Chi_early.png,"[-0.4, 0]","[0.4, 0]",4,incongruent,,,,,,,,,,,,,,,,,,,,,,0,47,47,40,,,,,,,,,,,,,,,,,,,,,,,,,,,,,,,,,,,,,,,,,,,,,,533.9824855998158,1.0113952001556754,535.0733132995665,534.9900209000334,535.8729296000674,535.9731128001586,535.9731128001586,535.9731128001586,right,1,0.8844104995951056,,,,,,,,,,,,,,,,,,,,,,,,,,,,,,,,,,,,002,001,2023-11-15_15h59.38.773,ETproject_Chi_2023.1.1,2023.1.1,59.99934007208213,
123,Week,星期六,星期日,,Vert,late,down,image/Chi_late.png,"[0, 0.4]","[0, -0.4]",1,congruent,,,,,,,,,,,,,,,,,,,,,,0,48,48,31,,,,,,,,,,,,,,,,,,,,,,,,,,,,,,,,,,,,,,,,,,,,,,537.9027629001066,1.0146505003795028,538.988675000146,538.9054105998948,539.7883738996461,539.888568200171,539.888568200171,539.888568200171,down,1,1.4234341997653246,,,,,,,,,,,,,,,,,,,,,,,,,,,,,,,,,,,,002,001,2023-11-15_15h59.38.773,ETproject_Chi_2023.1.1,2023.1.1,59.99934007208213,
4,Month,四月,六月,,Hori,early,left,image/Chi_early.png,"[-0.4, 0]","[0.4, 0]",2,congruent,,,,,,,,,,,,,,,,,,,,,,0,49,49,20,,,,,,,,,,,,,,,,,,,,,,,,,,,,,,,,,,,,,,,,,,,,,,541.3477066997439,1.0131302000954747,542.4375470997766,542.3542583994567,543.2371923001483,543.3373034000397,543.3373034000397,543.3373034000397,left,1,1.2631977992132306,,,,,,,,,,,,,,,,,,,,,,,,,,,,,,,,,,,,002,001,2023-11-15_15h59.38.773,ETproject_Chi_2023.1.1,2023.1.1,59.99934007208213,
,,,,,,,,,,,,,,,,,,,,,,,,,,,,,,,,,,,,,,,,,,,,,,,,,,,,,,,,,,,,,,,,,,,,,,,,,,,,,,,,,,,,,,,,,,,,,,,,,,,,,,,,,,,,,,,,544.6204455997795,544.6204455997795,space,5.140844499692321,,,,,,,,,,,,,,002,001,2023-11-15_15h59.38.773,ETproject_Chi_2023.1.1,2023.1.1,59.99934007208213,
,,,,,,,,,,,,,Spring 3.jpg,这是夏天吗？,否,Right,Break_material/Image/Spring 3.jpg,,,,,,,,,,,,,,,,,,,,,0,0,0,2,,,,,,,,,,,,,,,,,,,,,,,,,,,,,,,,,,,,,,,,,,,,,,,,,,,,,,,,,549.8680536998436,553.7718259999529,553.8671322995797,555.7832793993875,555.7832793993875,555.7832793993875,555.7832793993875,right,0,0.609328399412334,,,,,,,,,,,,,,,,,,,,,,002,001,2023-11-15_15h59.38.773,ETproject_Chi_2023.1.1,2023.1.1,59.99934007208213,
,,,,,,,,,,,,,Spring 5.jpg,这是冬天吗？,否,Right,Break_material/Image/Spring 5.jpg,,,,,,,,,,,,,,,,,,,,,0,1,1,4,,,,,,,,,,,,,,,,,,,,,,,,,,,,,,,,,,,,,,,,,,,,,,,,,,,,,,,,,556.8910469999537,560.4028032002971,560.8981152996421,562.4143194993958,562.4143194993958,562.4143194993958,562.4143194993958,right,0,0.31384829990565777,,,,,,,,,,,,,,,,,,,,,,002,001,2023-11-15_15h59.38.773,ETproject_Chi_2023.1.1,2023.1.1,59.99934007208213,
,,,,,,,,,,,,,Spring 1.jpg,这是春天吗？,是,Left,Break_material/Image/Spring 1.jpg,,,,,,,,,,,,,,,,,,,,,0,2,2,0,,,,,,,,,,,,,,,,,,,,,,,,,,,,,,,,,,,,,,,,,,,,,,,,,,,,,,,,,563.0206891000271,566.7330737998709,567.0293665993959,568.7456358000636,568.7456358000636,568.7456358000636,568.7456358000636,left,0,0.3278398001566529,,,,,,,,,,,,,,,,,,,,,,002,001,2023-11-15_15h59.38.773,ETproject_Chi_2023.1.1,2023.1.1,59.99934007208213,
,,,,,,,,,,,,,Spring 4.jpg,这是秋天吗？,否,Right,Break_material/Image/Spring 4.jpg,,,,,,,,,,,,,,,,,,,,,0,3,3,3,,,,,,,,,,,,,,,,,,,,,,,,,,,,,,,,,,,,,,,,,,,,,,,,,,,,,,,,,569.3025671998039,573.0816254997626,573.3107436997816,575.0934232994914,575.0934232994914,575.0934232994914,575.0934232994914,right,0,0.5316541995853186,,,,,,,,,,,,,,,,,,,,,,002,001,2023-11-15_15h59.38.773,ETproject_Chi_2023.1.1,2023.1.1,59.99934007208213,
,,,,,,,,,,,,,Spring 2.jpg,这是冬天吗？,否,Right,Break_material/Image/Spring 2.jpg,,,,,,,,,,,,,,,,,,,,,0,4,4,1,,,,,,,,,,,,,,,,,,,,,,,,,,,,,,,,,,,,,,,,,,,,,,,,,,,,,,,,,575.7273972993717,579.6293281000108,579.7250004000962,581.6412626998499,581.6412626998499,581.6412626998499,581.6412626998499,right,0,0.3427123995497823,,,,,,,,,,,,,,,,,,,,,,002,001,2023-11-15_15h59.38.773,ETproject_Chi_2023.1.1,2023.1.1,59.99934007208213,
,,,,,,,,,,,,,,,,,,,,,,,,,,,,,,,,,,,,,,,,,,,,,,,,,,,,,,,,,,,,,,,,,,,,,,,,,,,,,,,,,,,,,,,,,,,,,,,,,,,,,,,,,,,,,,,,,,,,582.0080431997776,582.0080431997776,space,1.8163740001618862,,,,,,,,,,002,001,2023-11-15_15h59.38.773,ETproject_Chi_2023.1.1,2023.1.1,59.99934007208213,
119,Week,星期二,星期四,,Vert,late,down,image/Chi_late.png,"[0, 0.4]","[0, -0.4]",2,congruent,,,,,,,,,,,,,,,,,,,,,,,,,,,,,,0,0,0,45,,,,,,,,,,,,,,,,,,,,,,,,,,,,,,,,,,,,,,583.9097646996379,0.9990801997482777,584.9569809995592,584.9234783994034,585.7566521996632,585.8565830998123,585.8565830998123,585.8565830998123,down,1,0.8960589999333024,,,,,,,,,,,,,,,,,,,,,,,,,,,,,,,,,,,,002,001,2023-11-15_15h59.38.773,ETproject_Chi_2023.1.1,2023.1.1,59.99934007208213,
128,Week,星期日,星期四,,Hori,early,right,image/Chi_early.png,"[-0.4, 0]","[0.4, 0]",3,incongruent,,,,,,,,,,,,,,,,,,,,,,,,,,,,,,0,1,1,35,,,,,,,,,,,,,,,,,,,,,,,,,,,,,,,,,,,,,,587.7818916998804,1.0150359999388456,588.8721463000402,588.7890620995313,589.6717623993754,589.7719243997708,589.7719243997708,589.7719243997708,right,1,0.8608042001724243,,,,,,,,,,,,,,,,,,,,,,,,,,,,,,,,,,,,002,001,2023-11-15_15h59.38.773,ETproject_Chi_2023.1.1,2023.1.1,59.99934007208213,
57,Month,五月,一月,,Vert,late,up,image/Chi_late.png,"[0, 0.4]","[0, -0.4]",4,incongruent,,,,,,,,,,,,,,,,,,,,,,,,,,,,,,0,2,2,25,,,,,,,,,,,,,,,,,,,,,,,,,,,,,,,,,,,,,,590.6680876994506,1.015455700457096,591.7546192994341,591.6712799994275,592.5542928995565,592.6542659001425,592.6542659001425,592.6542659001425,up,1,0.7467191992327571,,,,,,,,,,,,,,,,,,,,,,,,,,,,,,,,,,,,002,001,2023-11-15_15h59.38.773,ETproject_Chi_2023.1.1,2023.1.1,59.99934007208213,
50,Month,七月,六月,,Hori,early,right,image/Chi_early.png,"[-0.4, 0]","[0.4, 0]",1,incongruent,,,,,,,,,,,,,,,,,,,,,,,,,,,,,,0,3,3,28,,,,,,,,,,,,,,,,,,,,,,,,,,,,,,,,,,,,,,593.4388298997656,1.0142909996211529,594.5202882997692,594.4537287997082,595.3201618995517,595.4201630000025,595.4201630000025,595.4201630000025,left,0,0.7003276003524661,,,,,,,,,,,,,,,,,,,,,,,,,,,,,,,,,,,,002,001,2023-11-15_15h59.38.773,ETproject_Chi_2023.1.1,2023.1.1,59.99934007208213,
47,Month,九月 ,七月,,Hori,early,right,image/Chi_early.png,"[-0.4, 0]","[0.4, 0]",2,incongruent,,,,,,,,,,,,,,,,,,,,,,,,,,,,,,0,4,4,23,,,,,,,,,,,,,,,,,,,,,,,,,,,,,,,,,,,,,,596.1626563994214,1.0101464996114373,597.2527144001797,597.1695369994268,598.0524439001456,598.1524193994701,598.1524193994701,598.1524193994701,right,1,0.9127626996487379,,,,,,,,,,,,,,,,,,,,,,,,,,,,,,,,,,,,002,001,2023-11-15_15h59.38.773,ETproject_Chi_2023.1.1,2023.1.1,59.99934007208213,
64,Month,四月,一月,,Vert,late,up,image/Chi_late.png,"[0, 0.4]","[0, -0.4]",3,incongruent,,,,,,,,,,,,,,,,,,,,,,,,,,,,,,0,5,5,24,,,,,,,,,,,,,,,,,,,,,,,,,,,,,,,,,,,,,,599.102473099716,1.0116873998194933,600.1851477995515,600.1018121996894,600.9848274998367,601.0848611993715,601.0848611993715,601.0848611993715,up,1,0.8510346990078688,,,,,,,,,,,,,,,,,,,,,,,,,,,,,,,,,,,,002,001,2023-11-15_15h59.38.773,ETproject_Chi_2023.1.1,2023.1.1,59.99934007208213,
8,Month,八月,十二月,,Hori,early,left,image/Chi_early.png,"[-0.4, 0]","[0.4, 0]",4,congruent,,,,,,,,,,,,,,,,,,,,,,,,,,,,,,0,6,6,7,,,,,,,,,,,,,,,,,,,,,,,,,,,,,,,,,,,,,,601.9795316997916,1.011178799904883,603.0675855996087,602.9841964002699,603.8674128996208,603.9671708997339,603.9671708997339,603.9671708997339,left,1,0.8898129994049668,,,,,,,,,,,,,,,,,,,,,,,,,,,,,,,,,,,,002,001,2023-11-15_15h59.38.773,ETproject_Chi_2023.1.1,2023.1.1,59.99934007208213,
33,Month,十一月 ,十二月,,Vert,early,up,image/Chi_early.png,"[0, 0.4]","[0, -0.4]",1,congruent,,,,,,,,,,,,,,,,,,,,,,,,,,,,,,0,7,7,2,,,,,,,,,,,,,,,,,,,,,,,,,,,,,,,,,,,,,,605.8870861995965,1.0149366995319724,606.982887099497,606.8994592996314,607.7825790997595,607.8826228994876,607.8826228994876,607.8826228994876,up,1,1.334847199730575,,,,,,,,,,,,,,,,,,,,,,,,,,,,,,,,,,,,002,001,2023-11-15_15h59.38.773,ETproject_Chi_2023.1.1,2023.1.1,59.99934007208213,
52,Month,十月 ,七月,,Hori,late,left,image/Chi_late.png,"[-0.4, 0]","[0.4, 0]",3,incongruent,,,,,,,,,,,,,,,,,,,,,,,,,,,,,,0,8,8,41,,,,,,,,,,,,,,,,,,,,,,,,,,,,,,,,,,,,,,609.2617918001488,1.0143991000950336,610.3484571995214,610.2652394995093,611.1481312001124,611.2481436003,611.2481436003,611.2481436003,left,1,1.8246265994384885,,,,,,,,,,,,,,,,,,,,,,,,,,,,,,,,,,,,002,001,2023-11-15_15h59.38.773,ETproject_Chi_2023.1.1,2023.1.1,59.99934007208213,
15,Month,七月,十一月 ,,Hori,late,right,image/Chi_late.png,"[-0.4, 0]","[0.4, 0]",4,congruent,,,,,,,,,,,,,,,,,,,,,,,,,,,,,,0,9,9,15,,,,,,,,,,,,,,,,,,,,,,,,,,,,,,,,,,,,,,613.1082713995129,1.0105308005586267,614.1973566999659,614.1138977995142,614.9969523996115,615.0970951998606,615.0970951998606,615.0970951998606,left,0,2.4308563992381096,,,,,,,,,,,,,,,,,,,,,,,,,,,,,,,,,,,,002,001,2023-11-15_15h59.38.773,ETproject_Chi_2023.1.1,2023.1.1,59.99934007208213,
43,Month,五月,三月,,Hori,early,right,image/Chi_early.png,"[-0.4, 0]","[0.4, 0]",2,incongruent,,,,,,,,,,,,,,,,,,,,,,,,,,,,,,0,10,10,16,,,,,,,,,,,,,,,,,,,,,,,,,,,,,,,,,,,,,,617.5576037000865,1.0110090002417564,618.645808099769,618.5623816000298,619.4455762002617,619.5455336999148,619.5455336999148,619.5455336999148,right,1,0.7184814997017384,,,,,,,,,,,,,,,,,,,,,,,,,,,,,,,,,,,,002,001,2023-11-15_15h59.38.773,ETproject_Chi_2023.1.1,2023.1.1,59.99934007208213,
11,Month,一月,三月,,Hori,late,right,image/Chi_late.png,"[-0.4, 0]","[0.4, 0]",2,congruent,,,,,,,,,,,,,,,,,,,,,,,,,,,,,,0,11,11,5,,,,,,,,,,,,,,,,,,,,,,,,,,,,,,,,,,,,,,620.3073950000107,1.0124990995973349,621.3948438996449,621.3114970000461,622.1946933995932,622.2945734998211,622.2945734998211,622.2945734998211,right,1,0.7148211002349854,,,,,,,,,,,,,,,,,,,,,,,,,,,,,,,,,,,,002,001,2023-11-15_15h59.38.773,ETproject_Chi_2023.1.1,2023.1.1,59.99934007208213,
122,Week,星期五,星期日,,Vert,late,down,image/Chi_late.png,"[0, 0.4]","[0, -0.4]",2,congruent,,,,,,,,,,,,,,,,,,,,,,,,,,,,,,0,12,12,40,,,,,,,,,,,,,,,,,,,,,,,,,,,,,,,,,,,,,,623.0362125998363,1.0119591001421213,624.1272873999551,624.0438871001825,624.9269437994808,625.027018699795,625.027018699795,625.027018699795,down,1,0.9489666996523738,,,,,,,,,,,,,,,,,,,,,,,,,,,,,,,,,,,,002,001,2023-11-15_15h59.38.773,ETproject_Chi_2023.1.1,2023.1.1,59.99934007208213,
3,Month,三月,五月,,Hori,early,left,image/Chi_early.png,"[-0.4, 0]","[0.4, 0]",2,congruent,,,,,,,,,,,,,,,,,,,,,,,,,,,,,,0,13,13,29,,,,,,,,,,,,,,,,,,,,,,,,,,,,,,,,,,,,,,626.0063817994669,1.011331900022924,627.0929515995085,627.0095929000527,627.8926154999062,627.992662999779,627.992662999779,627.992662999779,left,1,0.5995211992412806,,,,,,,,,,,,,,,,,,,,,,,,,,,,,,,,,,,,002,001,2023-11-15_15h59.38.773,ETproject_Chi_2023.1.1,2023.1.1,59.99934007208213,
133,Week,星期五,星期二,,Hori,late,left,image/Chi_late.png,"[-0.4, 0]","[0.4, 0]",3,incongruent,,,,,,,,,,,,,,,,,,,,,,,,,,,,,,0,14,14,49,,,,,,,,,,,,,,,,,,,,,,,,,,,,,,,,,,,,,,629.6168379001319,1.0145855993032455,630.7083780998364,630.6249757995829,631.5080849993974,631.608156199567,631.608156199567,631.608156199567,left,1,0.8161621000617743,,,,,,,,,,,,,,,,,,,,,,,,,,,,,,,,,,,,002,001,2023-11-15_15h59.38.773,ETproject_Chi_2023.1.1,2023.1.1,59.99934007208213,
105,Week,星期二,星期五,,Hori,late,right,image/Chi_late.png,"[-0.4, 0]","[0.4, 0]",3,congruent,,,,,,,,,,,,,,,,,,,,,,,,,,,,,,0,15,15,42,,,,,,,,,,,,,,,,,,,,,,,,,,,,,,,,,,,,,,632.4510492999107,1.0110814999789,633.5407611001283,633.4576503997669,634.3404585998505,634.4408200001344,634.4408200001344,634.4408200001344,right,1,0.6554513992741704,,,,,,,,,,,,,,,,,,,,,,,,,,,,,,,,,,,,002,001,2023-11-15_15h59.38.773,ETproject_Chi_2023.1.1,2023.1.1,59.99934007208213,
52,Month,八月,四月,,Vert,early,down,image/Chi_early.png,"[0, 0.4]","[0, -0.4]",4,incongruent,,,,,,,,,,,,,,,,,,,,,,,,,,,,,,0,16,16,31,,,,,,,,,,,,,,,,,,,,,,,,,,,,,,,,,,,,,,635.1307506999001,0.9990143002942204,636.2232630001381,636.1402708999813,637.0229674000293,637.1229111002758,637.1229111002758,637.1229111002758,down,1,0.6542281992733479,,,,,,,,,,,,,,,,,,,,,,,,,,,,,,,,,,,,002,001,2023-11-15_15h59.38.773,ETproject_Chi_2023.1.1,2023.1.1,59.99934007208213,
79,Month,十一月 ,九月 ,,Vert,late,up,image/Chi_late.png,"[0, 0.4]","[0, -0.4]",2,incongruent,,,,,,,,,,,,,,,,,,,,,,,,,,,,,,0,17,17,0,,,,,,,,,,,,,,,,,,,,,,,,,,,,,,,,,,,,,,637.8143678996712,1.014240900054574,638.9058125000447,638.8223163997754,639.7054645000026,639.8053669994697,639.8053669994697,639.8053669994697,up,1,0.7311062002554536,,,,,,,,,,,,,,,,,,,,,,,,,,,,,,,,,,,,002,001,2023-11-15_15h59.38.773,ETproject_Chi_2023.1.1,2023.1.1,59.99934007208213,
63,Month,十一月 ,七月,,Vert,late,up,image/Chi_late.png,"[0, 0.4]","[0, -0.4]",4,incongruent,,,,,,,,,,,,,,,,,,,,,,,,,,,,,,0,18,18,3,,,,,,,,,,,,,,,,,,,,,,,,,,,,,,,,,,,,,,640.5649077994749,1.0109101999551058,641.6549389995635,641.5714791994542,642.4546342995018,642.5548000000417,642.5548000000417,642.5548000000417,up,1,0.6610008999705315,,,,,,,,,,,,,,,,,,,,,,,,,,,,,,,,,,,,002,001,2023-11-15_15h59.38.773,ETproject_Chi_2023.1.1,2023.1.1,59.99934007208213,
55,Month,七月,五月,,Hori,late,left,image/Chi_late.png,"[-0.4, 0]","[0.4, 0]",2,incongruent,,,,,,,,,,,,,,,,,,,,,,,,,,,,,,0,19,19,11,,,,,,,,,,,,,,,,,,,,,,,,,,,,,,,,,,,,,,643.2478436995298,1.010616099461913,644.3371791001409,644.253924000077,645.1368424994871,645.236859199591,645.236859199591,645.236859199591,left,1,0.851192899979651,,,,,,,,,,,,,,,,,,,,,,,,,,,,,,,,,,,,002,001,2023-11-15_15h59.38.773,ETproject_Chi_2023.1.1,2023.1.1,59.99934007208213,
107,Week,星期四,星期五,,Hori,late,right,image/Chi_late.png,"[-0.4, 0]","[0.4, 0]",1,congruent,,,,,,,,,,,,,,,,,,,,,,,,,,,,,,0,20,20,19,,,,,,,,,,,,,,,,,,,,,,,,,,,,,,,,,,,,,,646.1287575000897,1.0113391000777483,647.219762600027,647.13632280007,648.0195404002443,648.1193952998146,648.1193952998146,648.1193952998146,right,1,0.9375905990600586,,,,,,,,,,,,,,,,,,,,,,,,,,,,,,,,,,,,002,001,2023-11-15_15h59.38.773,ETproject_Chi_2023.1.1,2023.1.1,59.99934007208213,
76,Month,十一月 ,十月 ,,Vert,early,down,image/Chi_early.png,"[0, 0.4]","[0, -0.4]",1,incongruent,,,,,,,,,,,,,,,,,,,,,,,,,,,,,,0,21,21,1,,,,,,,,,,,,,,,,,,,,,,,,,,,,,,,,,,,,,,649.098299799487,0.9991142004728317,650.1853654999286,650.1019620997831,650.9850110998377,651.0850341999903,651.0850341999903,651.0850341999903,down,1,0.9078555004671216,,,,,,,,,,,,,,,,,,,,,,,,,,,,,,,,,,,,002,001,2023-11-15_15h59.38.773,ETproject_Chi_2023.1.1,2023.1.1,59.99934007208213,
51,Month,七月,三月,,Vert,early,down,image/Chi_early.png,"[0, 0.4]","[0, -0.4]",4,incongruent,,,,,,,,,,,,,,,,,,,,,,,,,,,,,,0,22,22,12,,,,,,,,,,,,,,,,,,,,,,,,,,,,,,,,,,,,,,652.0239682001993,1.0133867003023624,653.1177722001448,653.0341568998992,653.9175156997517,654.0174139998853,654.0174139998853,654.0174139998853,down,1,0.8232257990166545,,,,,,,,,,,,,,,,,,,,,,,,,,,,,,,,,,,,002,001,2023-11-15_15h59.38.773,ETproject_Chi_2023.1.1,2023.1.1,59.99934007208213,
42,Month,九月 ,六月,,Hori,early,right,image/Chi_early.png,"[-0.4, 0]","[0.4, 0]",3,incongruent,,,,,,,,,,,,,,,,,,,,,,,,,,,,,,0,23,23,4,,,,,,,,,,,,,,,,,,,,,,,,,,,,,,,,,,,,,,654.8783807000145,1.0106375003233552,655.9667996000499,655.8834295999259,656.7665047002956,656.8666386995465,656.8666386995465,656.8666386995465,right,1,1.0300112999975681,,,,,,,,,,,,,,,,,,,,,,,,,,,,,,,,,,,,002,001,2023-11-15_15h59.38.773,ETproject_Chi_2023.1.1,2023.1.1,59.99934007208213,
50,Month,六月,二月,,Vert,early,down,image/Chi_early.png,"[0, 0.4]","[0, -0.4]",4,incongruent,,,,,,,,,,,,,,,,,,,,,,,,,,,,,,0,24,24,30,,,,,,,,,,,,,,,,,,,,,,,,,,,,,,,,,,,,,,657.9251323994249,1.0111059993505478,659.0158307002857,658.9324952997267,659.8156151995063,659.9154576994479,659.9154576994479,659.9154576994479,down,1,0.7816137997433543,,,,,,,,,,,,,,,,,,,,,,,,,,,,,,,,,,,,002,001,2023-11-15_15h59.38.773,ETproject_Chi_2023.1.1,2023.1.1,59.99934007208213,
31,Month,七月,十一月 ,,Vert,late,down,image/Chi_late.png,"[0, 0.4]","[0, -0.4]",4,congruent,,,,,,,,,,,,,,,,,,,,,,,,,,,,,,0,25,25,6,,,,,,,,,,,,,,,,,,,,,,,,,,,,,,,,,,,,,,660.7313986001536,1.011354299262166,661.8147863000631,661.7314606998116,662.6145623000339,662.714597299695,662.714597299695,662.714597299695,down,1,0.9011913994327188,,,,,,,,,,,,,,,,,,,,,,,,,,,,,,,,,,,,002,001,2023-11-15_15h59.38.773,ETproject_Chi_2023.1.1,2023.1.1,59.99934007208213,
118,Week,星期一,星期三 ,,Vert,late,down,image/Chi_late.png,"[0, 0.4]","[0, -0.4]",2,congruent,,,,,,,,,,,,,,,,,,,,,,,,,,,,,,0,26,26,43,,,,,,,,,,,,,,,,,,,,,,,,,,,,,,,,,,,,,,663.6521562002599,1.0160301998257637,664.7473186999559,664.6639254996553,665.5469252001494,665.6468856995925,665.6468856995925,665.6468856995925,down,1,1.2903513992205262,,,,,,,,,,,,,,,,,,,,,,,,,,,,,,,,,,,,002,001,2023-11-15_15h59.38.773,ETproject_Chi_2023.1.1,2023.1.1,59.99934007208213,
46,Month,三月,二月,,Hori,early,right,image/Chi_early.png,"[-0.4, 0]","[0.4, 0]",1,incongruent,,,,,,,,,,,,,,,,,,,,,,,,,,,,,,0,27,27,36,,,,,,,,,,,,,,,,,,,,,,,,,,,,,,,,,,,,,,666.9787620995194,1.0116820000112057,668.0628295997158,667.9793183999136,668.862701700069,668.9625124000013,668.9625124000013,668.9625124000013,right,1,0.7734032003208995,,,,,,,,,,,,,,,,,,,,,,,,,,,,,,,,,,,,002,001,2023-11-15_15h59.38.773,ETproject_Chi_2023.1.1,2023.1.1,59.99934007208213,
47,Month,十一月 ,七月,,Hori,late,left,image/Chi_late.png,"[-0.4, 0]","[0.4, 0]",4,incongruent,,,,,,,,,,,,,,,,,,,,,,,,,,,,,,0,28,28,37,,,,,,,,,,,,,,,,,,,,,,,,,,,,,,,,,,,,,,669.7707527996972,1.0155891003087163,670.8617989001796,670.7785740001127,671.6614504996687,671.7616074001417,671.7616074001417,671.7616074001417,left,1,0.6151066003367305,,,,,,,,,,,,,,,,,,,,,,,,,,,,,,,,,,,,002,001,2023-11-15_15h59.38.773,ETproject_Chi_2023.1.1,2023.1.1,59.99934007208213,
9,Month,九月 ,十月 ,,Hori,early,left,image/Chi_early.png,"[-0.4, 0]","[0.4, 0]",1,congruent,,,,,,,,,,,,,,,,,,,,,,,,,,,,,,0,29,29,47,,,,,,,,,,,,,,,,,,,,,,,,,,,,,,,,,,,,,,672.4049052996561,1.0120262000709772,673.4942691996694,673.4110442996025,674.2940507000312,674.394035499543,674.394035499543,674.394035499543,left,1,0.8235314004123211,,,,,,,,,,,,,,,,,,,,,,,,,,,,,,,,,,,,002,001,2023-11-15_15h59.38.773,ETproject_Chi_2023.1.1,2023.1.1,59.99934007208213,
58,Month,十月 ,八月,,Hori,late,left,image/Chi_late.png,"[-0.4, 0]","[0.4, 0]",2,incongruent,,,,,,,,,,,,,,,,,,,,,,,,,,,,,,0,30,30,26,,,,,,,,,,,,,,,,,,,,,,,,,,,,,,,,,,,,,,675.2572754994035,1.0134637001901865,676.3434212002903,676.2600993998349,677.1430345000699,677.2432311996818,677.2432311996818,677.2432311996818,left,1,0.7895685993134975,,,,,,,,,,,,,,,,,,,,,,,,,,,,,,,,,,,,002,001,2023-11-15_15h59.38.773,ETproject_Chi_2023.1.1,2023.1.1,59.99934007208213,
36,Month,八月,四月,,Hori,early,right,image/Chi_early.png,"[-0.4, 0]","[0.4, 0]",4,incongruent,,,,,,,,,,,,,,,,,,,,,,,,,,,,,,0,31,31,27,,,,,,,,,,,,,,,,,,,,,,,,,,,,,,,,,,,,,,678.0722942994907,1.0102016003802419,679.1592057002708,679.0757571998984,679.9590071998537,680.0586863001809,680.0586863001809,680.0586863001809,right,1,0.6464459002017975,,,,,,,,,,,,,,,,,,,,,,,,,,,,,,,,,,,,002,001,2023-11-15_15h59.38.773,ETproject_Chi_2023.1.1,2023.1.1,59.99934007208213,
127,Week,星期四,星期三 ,,Hori,early,right,image/Chi_early.png,"[-0.4, 0]","[0.4, 0]",1,incongruent,,,,,,,,,,,,,,,,,,,,,,,,,,,,,,0,32,32,48,,,,,,,,,,,,,,,,,,,,,,,,,,,,,,,,,,,,,,680.7324142996222,1.0143397003412247,681.8248806996271,681.7414799993858,682.6245090002194,682.7246177000925,682.7246177000925,682.7246177000925,right,1,0.9330433998256922,,,,,,,,,,,,,,,,,,,,,,,,,,,,,,,,,,,,002,001,2023-11-15_15h59.38.773,ETproject_Chi_2023.1.1,2023.1.1,59.99934007208213,
136,Week,星期六,星期五,,Hori,late,left,image/Chi_late.png,"[-0.4, 0]","[0.4, 0]",1,incongruent,,,,,,,,,,,,,,,,,,,,,,,,,,,,,,0,33,33,13,,,,,,,,,,,,,,,,,,,,,,,,,,,,,,,,,,,,,,683.6858291998506,1.0128015000373125,684.7739025000483,684.6907134000212,685.5736084999517,685.6737203998491,685.6737203998491,685.6737203998491,left,1,0.7902100002393126,,,,,,,,,,,,,,,,,,,,,,,,,,,,,,,,,,,,002,001,2023-11-15_15h59.38.773,ETproject_Chi_2023.1.1,2023.1.1,59.99934007208213,
69,Month,十一月 ,九月 ,,Vert,early,down,image/Chi_early.png,"[0, 0.4]","[0, -0.4]",2,incongruent,,,,,,,,,,,,,,,,,,,,,,,,,,,,,,0,34,34,32,,,,,,,,,,,,,,,,,,,,,,,,,,,,,,,,,,,,,,686.5000916002318,1.0133925005793571,687.5895720999688,687.506392499432,688.3894266998395,688.4894528994337,688.4894528994337,688.4894528994337,up,0,0.9034735998138785,,,,,,,,,,,,,,,,,,,,,,,,,,,,,,,,,,,,002,001,2023-11-15_15h59.38.773,ETproject_Chi_2023.1.1,2023.1.1,59.99934007208213,
143,Week,星期日,星期五,,Vert,early,down,image/Chi_early.png,"[0, 0.4]","[0, -0.4]",2,incongruent,,,,,,,,,,,,,,,,,,,,,,,,,,,,,,0,35,35,22,,,,,,,,,,,,,,,,,,,,,,,,,,,,,,,,,,,,,,689.4308235999197,1.0120182996615767,690.5222386997193,690.4385935002938,691.3218200998381,691.4217844000086,691.4217844000086,691.4217844000086,down,1,0.8181210998445749,,,,,,,,,,,,,,,,,,,,,,,,,,,,,,,,,,,,002,001,2023-11-15_15h59.38.773,ETproject_Chi_2023.1.1,2023.1.1,59.99934007208213,
47,Month,五月,二月,,Hori,late,left,image/Chi_late.png,"[-0.4, 0]","[0.4, 0]",3,incongruent,,,,,,,,,,,,,,,,,,,,,,,,,,,,,,0,36,36,10,,,,,,,,,,,,,,,,,,,,,,,,,,,,,,,,,,,,,,692.2836041999981,1.0120911002159119,693.3711875993758,693.287864100188,694.1710542002693,694.2709082998335,694.2709082998335,694.2709082998335,left,1,0.9623424001038074,,,,,,,,,,,,,,,,,,,,,,,,,,,,,,,,,,,,002,001,2023-11-15_15h59.38.773,ETproject_Chi_2023.1.1,2023.1.1,59.99934007208213,
149,Week,星期五,星期四,,Vert,late,up,image/Chi_late.png,"[0, 0.4]","[0, -0.4]",1,incongruent,,,,,,,,,,,,,,,,,,,,,,,,,,,,,,0,37,37,8,,,,,,,,,,,,,,,,,,,,,,,,,,,,,,,,,,,,,,696.2587647000328,1.015025599859655,697.3530642995611,697.2698436994106,698.1528003001586,698.2528518997133,698.2528518997133,698.2528518997133,up,1,0.7948727998882532,,,,,,,,,,,,,,,,,,,,,,,,,,,,,,,,,,,,002,001,2023-11-15_15h59.38.773,ETproject_Chi_2023.1.1,2023.1.1,59.99934007208213,
32,Month,五月,八月,,Vert,late,down,image/Chi_late.png,"[0, 0.4]","[0, -0.4]",3,congruent,,,,,,,,,,,,,,,,,,,,,,,,,,,,,,0,38,38,9,,,,,,,,,,,,,,,,,,,,,,,,,,,,,,,,,,,,,,699.083026399836,1.0116114998236299,700.1687744995579,700.0855316994712,700.9684860995039,701.0686275996268,701.0686275996268,701.0686275996268,down,1,0.8354039993137121,,,,,,,,,,,,,,,,,,,,,,,,,,,,,,,,,,,,002,001,2023-11-15_15h59.38.773,ETproject_Chi_2023.1.1,2023.1.1,59.99934007208213,
30,Month,三月,六月,,Vert,late,down,image/Chi_late.png,"[0, 0.4]","[0, -0.4]",3,congruent,,,,,,,,,,,,,,,,,,,,,,,,,,,,,,0,39,39,14,,,,,,,,,,,,,,,,,,,,,,,,,,,,,,,,,,,,,,701.9450348997489,1.0122523000463843,703.0344680994749,702.9512641001493,703.8343573994935,703.934209600091,703.934209600091,703.934209600091,down,1,1.0023387996479869,,,,,,,,,,,,,,,,,,,,,,,,,,,,,,,,,,,,002,001,2023-11-15_15h59.38.773,ETproject_Chi_2023.1.1,2023.1.1,59.99934007208213,
122,Week,星期五,星期六,,Vert,late,down,image/Chi_late.png,"[0, 0.4]","[0, -0.4]",1,congruent,,,,,,,,,,,,,,,,,,,,,,,,,,,,,,0,40,40,38,,,,,,,,,,,,,,,,,,,,,,,,,,,,,,,,,,,,,,704.9745442997664,1.0131540996953845,706.0670726997778,705.9837803998962,706.866664099507,706.966653900221,706.966653900221,706.966653900221,down,1,0.8570115994662046,,,,,,,,,,,,,,,,,,,,,,,,,,,,,,,,,,,,002,001,2023-11-15_15h59.38.773,ETproject_Chi_2023.1.1,2023.1.1,59.99934007208213,
107,Week,星期四,星期日,,Hori,late,right,image/Chi_late.png,"[-0.4, 0]","[0.4, 0]",3,congruent,,,,,,,,,,,,,,,,,,,,,,,,,,,,,,0,41,41,34,,,,,,,,,,,,,,,,,,,,,,,,,,,,,,,,,,,,,,707.8561063995585,1.0155844995751977,708.9493832001463,708.865922300145,709.7490603998303,709.8490797001868,709.8490797001868,709.8490797001868,right,1,1.023525600321591,,,,,,,,,,,,,,,,,,,,,,,,,,,,,,,,,,,,002,001,2023-11-15_15h59.38.773,ETproject_Chi_2023.1.1,2023.1.1,59.99934007208213,
68,Month,三月,二月,,Vert,early,down,image/Chi_early.png,"[0, 0.4]","[0, -0.4]",1,incongruent,,,,,,,,,,,,,,,,,,,,,,,,,,,,,,0,42,42,46,,,,,,,,,,,,,,,,,,,,,,,,,,,,,,,,,,,,,,710.9096278995275,1.0155413998290896,711.9981752997264,711.914917900227,712.7978916000575,712.8980955993757,712.8980955993757,712.8980955993757,down,1,1.5177684994414449,,,,,,,,,,,,,,,,,,,,,,,,,,,,,,,,,,,,002,001,2023-11-15_15h59.38.773,ETproject_Chi_2023.1.1,2023.1.1,59.99934007208213,
12,Month,二月,四月,,Hori,late,right,image/Chi_late.png,"[-0.4, 0]","[0.4, 0]",2,congruent,,,,,,,,,,,,,,,,,,,,,,,,,,,,,,0,43,43,21,,,,,,,,,,,,,,,,,,,,,,,,,,,,,,,,,,,,,,714.464323299937,1.0129660004749894,715.5470811994746,715.4638374000788,716.3468712996691,716.446934199892,716.446934199892,716.446934199892,right,1,0.8740315996110439,,,,,,,,,,,,,,,,,,,,,,,,,,,,,,,,,,,,002,001,2023-11-15_15h59.38.773,ETproject_Chi_2023.1.1,2023.1.1,59.99934007208213,
38,Month,五月,六月,,Vert,late,down,image/Chi_late.png,"[0, 0.4]","[0, -0.4]",1,congruent,,,,,,,,,,,,,,,,,,,,,,,,,,,,,,0,44,44,20,,,,,,,,,,,,,,,,,,,,,,,,,,,,,,,,,,,,,,718.3521445998922,1.0148983001708984,719.4457992995158,719.3624780997634,720.2454615999013,720.3454876998439,720.3454876998439,720.3454876998439,down,1,1.0063904002308846,,,,,,,,,,,,,,,,,,,,,,,,,,,,,,,,,,,,002,001,2023-11-15_15h59.38.773,ETproject_Chi_2023.1.1,2023.1.1,59.99934007208213,
43,Month,七月,三月,,Hori,late,left,image/Chi_late.png,"[-0.4, 0]","[0.4, 0]",4,incongruent,,,,,,,,,,,,,,,,,,,,,,,,,,,,,,0,45,45,39,,,,,,,,,,,,,,,,,,,,,,,,,,,,,,,,,,,,,,721.3887553000823,1.0111023001372814,722.4782729996368,722.3947562994435,723.2777586001903,723.3779811002314,723.3779811002314,723.3779811002314,left,1,0.8227438004687428,,,,,,,,,,,,,,,,,,,,,,,,,,,,,,,,,,,,002,001,2023-11-15_15h59.38.773,ETproject_Chi_2023.1.1,2023.1.1,59.99934007208213,
61,Month,七月,六月,,Hori,late,left,image/Chi_late.png,"[-0.4, 0]","[0.4, 0]",1,incongruent,,,,,,,,,,,,,,,,,,,,,,,,,,,,,,0,46,46,17,,,,,,,,,,,,,,,,,,,,,,,,,,,,,,,,,,,,,,724.23549370002,1.0113310990855098,725.3273833002895,725.2438933998346,726.1270260000601,726.2270487993956,726.2270487993956,726.2270487993956,left,1,1.3407806996256113,,,,,,,,,,,,,,,,,,,,,,,,,,,,,,,,,,,,002,001,2023-11-15_15h59.38.773,ETproject_Chi_2023.1.1,2023.1.1,59.99934007208213,
38,Month,十月 ,六月,,Hori,early,right,image/Chi_early.png,"[-0.4, 0]","[0.4, 0]",4,incongruent,,,,,,,,,,,,,,,,,,,,,,,,,,,,,,0,47,47,18,,,,,,,,,,,,,,,,,,,,,,,,,,,,,,,,,,,,,,727.6066242000088,1.013658900745213,728.6928944000974,728.6094567002729,729.4923359993845,729.5925203002989,729.5925203002989,729.5925203002989,right,1,0.7287542996928096,,,,,,,,,,,,,,,,,,,,,,,,,,,,,,,,,,,,002,001,2023-11-15_15h59.38.773,ETproject_Chi_2023.1.1,2023.1.1,59.99934007208213,
32,Month,十月 ,十一月 ,,Vert,early,up,image/Chi_early.png,"[0, 0.4]","[0, -0.4]",1,congruent,,,,,,,,,,,,,,,,,,,,,,,,,,,,,,0,48,48,44,,,,,,,,,,,,,,,,,,,,,,,,,,,,,,,,,,,,,,730.3506311997771,1.0107287000864744,731.4418337000534,731.3585026999936,732.2417252995074,732.3415305996314,732.3415305996314,732.3415305996314,up,1,0.9068280998617411,,,,,,,,,,,,,,,,,,,,,,,,,,,,,,,,,,,,002,001,2023-11-15_15h59.38.773,ETproject_Chi_2023.1.1,2023.1.1,59.99934007208213,
106,Week,星期三 ,星期五,,Hori,late,right,image/Chi_late.png,"[-0.4, 0]","[0.4, 0]",2,congruent,,,,,,,,,,,,,,,,,,,,,,,,,,,,,,0,49,49,33,,,,,,,,,,,,,,,,,,,,,,,,,,,,,,,,,,,,,,733.2912314999849,1.0104753002524376,734.3742148000747,734.290942300111,735.1739807995036,735.2739338995889,735.2739338995889,735.2739338995889,right,1,0.9984010998159647,,,,,,,,,,,,,,,,,,,,,,,,,,,,,,,,,,,,002,001,2023-11-15_15h59.38.773,ETproject_Chi_2023.1.1,2023.1.1,59.99934007208213,
,,,,,,,,,,,,,,,,,,,,,,,,,,,,,,,,,,,,,,,,,,,,,,,,,,,,,,,,,,,,,,,,,,,,,,,,,,,,,,,,,,,,,,,,,,,,,,,,,,,,,,,,,,,,,,,,,,,,,,,,736.2905264999717,736.2905264999717,space,3.6053507002070546,,,,,,002,001,2023-11-15_15h59.38.773,ETproject_Chi_2023.1.1,2023.1.1,59.99934007208213,
,,,,,,,,,,,,,Spring 5.jpg,这是冬天吗？,否,Right,Break_material/Image/Spring 5.jpg,,,,,,,,,,,,,,,,,,,,,,,,,,,,,0,0,0,4,,,,,,,,,,,,,,,,,,,,,,,,,,,,,,,,,,,,,,,,,,,,,,,,,740.4024823000655,743.9098020996898,744.4041876001284,745.9204791001976,745.9204791001976,745.9204791001976,745.9204791001976,right,0,0.496624399907887,,,,,,,,,,,,,,,,,,,,,,002,001,2023-11-15_15h59.38.773,ETproject_Chi_2023.1.1,2023.1.1,59.99934007208213,
,,,,,,,,,,,,,Spring 3.jpg,这是夏天吗？,否,Right,Break_material/Image/Spring 3.jpg,,,,,,,,,,,,,,,,,,,,,,,,,,,,,0,1,1,2,,,,,,,,,,,,,,,,,,,,,,,,,,,,,,,,,,,,,,,,,,,,,,,,,746.6717210998759,750.4231169000268,750.6686046998948,752.4346434995532,752.4346434995532,752.4346434995532,752.4346434995532,right,0,1.1253994992002845,,,,,,,,,,,,,,,,,,,,,,002,001,2023-11-15_15h59.38.773,ETproject_Chi_2023.1.1,2023.1.1,59.99934007208213,
,,,,,,,,,,,,,Spring 2.jpg,这是冬天吗？,否,Right,Break_material/Image/Spring 2.jpg,,,,,,,,,,,,,,,,,,,,,,,,,,,,,0,2,2,1,,,,,,,,,,,,,,,,,,,,,,,,,,,,,,,,,,,,,,,,,,,,,,,,,753.6524013001472,757.5700543997809,757.6496374998242,759.5823478996754,759.5823478996754,759.5823478996754,759.5823478996754,right,0,0.33079619985073805,,,,,,,,,,,,,,,,,,,,,,002,001,2023-11-15_15h59.38.773,ETproject_Chi_2023.1.1,2023.1.1,59.99934007208213,
,,,,,,,,,,,,,Spring 4.jpg,这是秋天吗？,否,Right,Break_material/Image/Spring 4.jpg,,,,,,,,,,,,,,,,,,,,,,,,,,,,,0,3,3,3,,,,,,,,,,,,,,,,,,,,,,,,,,,,,,,,,,,,,,,,,,,,,,,,,760.1584572996944,763.918923499994,764.1643423996866,765.9305526996031,765.9305526996031,765.9305526996031,765.9305526996031,right,0,0.5978225991129875,,,,,,,,,,,,,,,,,,,,,,002,001,2023-11-15_15h59.38.773,ETproject_Chi_2023.1.1,2023.1.1,59.99934007208213,
,,,,,,,,,,,,,Spring 1.jpg,这是春天吗？,是,Left,Break_material/Image/Spring 1.jpg,,,,,,,,,,,,,,,,,,,,,,,,,,,,,0,4,4,0,,,,,,,,,,,,,,,,,,,,,,,,,,,,,,,,,,,,,,,,,,,,,,,,,766.6182172996923,770.5321247996762,770.6288604997098,772.5450352001935,772.5450352001935,772.5450352001935,772.5450352001935,left,0,0.7351132994517684,,,,,,,,,,,,,,,,,,,,,,002,001,2023-11-15_15h59.38.773,ETproject_Chi_2023.1.1,2023.1.1,59.99934007208213,
,,,,,,,,,,,,,,,,,,,,,,,,,,,,,,,,,,,,,,,,,,,,,,,,,,,,,,,,,,,,,,,,,,,,,,,,,,,,,,,,,,,,,,,,,,,,,,,,,,,,,,,,,,,,,,,,,,,,,,,,,,,,773.3115235995501,773.3115235995501,space,2.760285099968314,,002,001,2023-11-15_15h59.38.773,ETproject_Chi_2023.1.1,2023.1.1,59.99934007208213,
120,Week,星期三 ,星期四,,Vert,late,down,image/Chi_late.png,"[0, 0.4]","[0, -0.4]",1,congruent,,,,,,,,,,,,,,,,,,,,,,,,,,,,,,,,,,,,,,0,0,0,46,,,,,,,,,,,,,,,,,,,,,,,,,,,,,,776.170912399888,0.9995611999183893,777.176808799617,777.176808799617,777.976652899757,778.0931586995721,778.0931586995721,778.0931586995721,down,1,0.7147438004612923,,,,,,,,,,,,,,,,,,,,,,,,,,,,,,,,,,,,002,001,2023-11-15_15h59.38.773,ETproject_Chi_2023.1.1,2023.1.1,59.99934007208213,
27,Month,七月,九月 ,,Vert,early,up,image/Chi_early.png,"[0, 0.4]","[0, -0.4]",2,congruent,,,,,,,,,,,,,,,,,,,,,,,,,,,,,,,,,,,,,,0,1,1,17,,,,,,,,,,,,,,,,,,,,,,,,,,,,,,778.8385143000633,1.0133597999811172,779.9255413999781,779.8424861002713,780.725790400058,780.8254696996883,780.8254696996883,780.8254696996883,up,1,0.7749648997560143,,,,,,,,,,,,,,,,,,,,,,,,,,,,,,,,,,,,002,001,2023-11-15_15h59.38.773,ETproject_Chi_2023.1.1,2023.1.1,59.99934007208213,
3,Month,三月,七月,,Hori,early,left,image/Chi_early.png,"[-0.4, 0]","[0.4, 0]",4,congruent,,,,,,,,,,,,,,,,,,,,,,,,,,,,,,,,,,,,,,0,2,2,49,,,,,,,,,,,,,,,,,,,,,,,,,,,,,,782.629960199818,1.015018199570477,783.724697499536,783.641470500268,784.5243752002716,784.6243532998487,784.6243532998487,784.6243532998487,left,1,0.7200221000239253,,,,,,,,,,,,,,,,,,,,,,,,,,,,,,,,,,,,002,001,2023-11-15_15h59.38.773,ETproject_Chi_2023.1.1,2023.1.1,59.99934007208213,
33,Month,六月,九月 ,,Vert,late,down,image/Chi_late.png,"[0, 0.4]","[0, -0.4]",3,congruent,,,,,,,,,,,,,,,,,,,,,,,,,,,,,,,,,,,,,,0,3,3,44,,,,,,,,,,,,,,,,,,,,,,,,,,,,,,785.3858244000003,1.013837500475347,786.4735343996435,786.3903310997412,787.2734335996211,787.3734892997891,787.3734892997891,787.3734892997891,down,1,0.9069929998368025,,,,,,,,,,,,,,,,,,,,,,,,,,,,,,,,,,,,002,001,2023-11-15_15h59.38.773,ETproject_Chi_2023.1.1,2023.1.1,59.99934007208213,
3,Month,三月,六月,,Hori,early,left,image/Chi_early.png,"[-0.4, 0]","[0.4, 0]",3,congruent,,,,,,,,,,,,,,,,,,,,,,,,,,,,,,,,,,,,,,0,4,4,0,,,,,,,,,,,,,,,,,,,,,,,,,,,,,,788.3173842001706,1.012131500057876,789.4061166997999,789.3227140996605,790.2056732997298,790.3057488994673,790.3057488994673,790.3057488994673,left,1,0.6393868997693062,,,,,,,,,,,,,,,,,,,,,,,,,,,,,,,,,,,,002,001,2023-11-15_15h59.38.773,ETproject_Chi_2023.1.1,2023.1.1,59.99934007208213,
149,Week,星期六,星期四,,Vert,late,up,image/Chi_late.png,"[0, 0.4]","[0, -0.4]",2,incongruent,,,,,,,,,,,,,,,,,,,,,,,,,,,,,,,,,,,,,,0,5,5,10,,,,,,,,,,,,,,,,,,,,,,,,,,,,,,791.9814085997641,1.0142724998295307,793.0716353999451,792.9880945999175,793.8712425995618,793.971457099542,793.971457099542,793.971457099542,up,1,1.084217700175941,,,,,,,,,,,,,,,,,,,,,,,,,,,,,,,,,,,,002,001,2023-11-15_15h59.38.773,ETproject_Chi_2023.1.1,2023.1.1,59.99934007208213,
22,Month,二月,四月,,Vert,early,up,image/Chi_early.png,"[0, 0.4]","[0, -0.4]",2,congruent,,,,,,,,,,,,,,,,,,,,,,,,,,,,,,,,,,,,,,0,6,6,39,,,,,,,,,,,,,,,,,,,,,,,,,,,,,,795.0978367999196,0.9992201002314687,796.1872865995392,796.1039038999006,796.9869077000767,797.0868416000158,797.0868416000158,797.0868416000158,up,1,0.7621857998892665,,,,,,,,,,,,,,,,,,,,,,,,,,,,,,,,,,,,002,001,2023-11-15_15h59.38.773,ETproject_Chi_2023.1.1,2023.1.1,59.99934007208213,
16,Month,五月,六月,,Hori,late,right,image/Chi_late.png,"[-0.4, 0]","[0.4, 0]",1,congruent,,,,,,,,,,,,,,,,,,,,,,,,,,,,,,,,,,,,,,0,7,7,32,,,,,,,,,,,,,,,,,,,,,,,,,,,,,,797.8858382999897,1.0143611002713442,798.9695422993973,798.8862303998321,799.7694239998236,799.8694743998349,799.8694743998349,799.8694743998349,right,1,0.7312642997130752,,,,,,,,,,,,,,,,,,,,,,,,,,,,,,,,,,,,002,001,2023-11-15_15h59.38.773,ETproject_Chi_2023.1.1,2023.1.1,59.99934007208213,
133,Week,星期三 ,星期二,,Hori,late,left,image/Chi_late.png,"[-0.4, 0]","[0.4, 0]",1,incongruent,,,,,,,,,,,,,,,,,,,,,,,,,,,,,,,,,,,,,,0,8,8,30,,,,,,,,,,,,,,,,,,,,,,,,,,,,,,800.6288323001936,1.011654599569738,801.7187807001173,801.6352591998875,802.5184397995472,802.6184804001823,802.6184804001823,802.6184804001823,left,1,0.878621599636972,,,,,,,,,,,,,,,,,,,,,,,,,,,,,,,,,,,,002,001,2023-11-15_15h59.38.773,ETproject_Chi_2023.1.1,2023.1.1,59.99934007208213,
44,Month,八月,四月,,Hori,late,left,image/Chi_late.png,"[-0.4, 0]","[0.4, 0]",4,incongruent,,,,,,,,,,,,,,,,,,,,,,,,,,,,,,,,,,,,,,0,9,9,40,,,,,,,,,,,,,,,,,,,,,,,,,,,,,,803.5246345000342,1.0132363000884652,804.6176771996543,804.5342806996778,805.417595599778,805.5174773000181,805.5174773000181,805.5174773000181,left,1,0.659315699711442,,,,,,,,,,,,,,,,,,,,,,,,,,,,,,,,,,,,002,001,2023-11-15_15h59.38.773,ETproject_Chi_2023.1.1,2023.1.1,59.99934007208213,
29,Month,二月,五月,,Vert,late,down,image/Chi_late.png,"[0, 0.4]","[0, -0.4]",3,congruent,,,,,,,,,,,,,,,,,,,,,,,,,,,,,,,,,,,,,,0,10,10,14,,,,,,,,,,,,,,,,,,,,,,,,,,,,,,806.2049399996176,1.0155458999797702,807.3001087000594,807.2168672000989,808.0999611997977,808.1997978994623,808.1997978994623,808.1997978994623,down,1,0.7759475996717811,,,,,,,,,,,,,,,,,,,,,,,,,,,,,,,,,,,,002,001,2023-11-15_15h59.38.773,ETproject_Chi_2023.1.1,2023.1.1,59.99934007208213,
141,Week,星期四,星期三 ,,Vert,early,down,image/Chi_early.png,"[0, 0.4]","[0, -0.4]",1,incongruent,,,,,,,,,,,,,,,,,,,,,,,,,,,,,,,,,,,,,,0,11,11,7,,,,,,,,,,,,,,,,,,,,,,,,,,,,,,809.0093462001532,1.0139982998371124,810.0992622999474,810.015958099626,810.899044400081,810.9991584001109,810.9991584001109,810.9991584001109,down,1,0.8582148002460599,,,,,,,,,,,,,,,,,,,,,,,,,,,,,,,,,,,,002,001,2023-11-15_15h59.38.773,ETproject_Chi_2023.1.1,2023.1.1,59.99934007208213,
6,Month,六月,七月,,Hori,early,left,image/Chi_early.png,"[-0.4, 0]","[0.4, 0]",1,congruent,,,,,,,,,,,,,,,,,,,,,,,,,,,,,,,,,,,,,,0,12,12,33,,,,,,,,,,,,,,,,,,,,,,,,,,,,,,811.8960844995454,1.0109161995351315,812.9817044995725,812.8982905996963,813.7815041001886,813.8814634997398,813.8814634997398,813.8814634997398,left,1,0.8637771997600794,,,,,,,,,,,,,,,,,,,,,,,,,,,,,,,,,,,,002,001,2023-11-15_15h59.38.773,ETproject_Chi_2023.1.1,2023.1.1,59.99934007208213,
2,Month,二月,四月,,Hori,early,left,image/Chi_early.png,"[-0.4, 0]","[0.4, 0]",2,congruent,,,,,,,,,,,,,,,,,,,,,,,,,,,,,,,,,,,,,,0,13,13,5,,,,,,,,,,,,,,,,,,,,,,,,,,,,,,814.7744718994945,1.0115040997043252,815.8638988994062,815.7806917000562,816.6635894002393,816.7638210002333,816.7638210002333,816.7638210002333,left,1,0.7975837998092175,,,,,,,,,,,,,,,,,,,,,,,,,,,,,,,,,,,,002,001,2023-11-15_15h59.38.773,ETproject_Chi_2023.1.1,2023.1.1,59.99934007208213,
152,Week,星期一,星期二,,Vert,late,up,image/Chi_late.png,"[0, 0.4]","[0, -0.4]",1,incongruent,,,,,,,,,,,,,,,,,,,,,,,,,,,,,,,,,,,,,,0,14,14,45,,,,,,,,,,,,,,,,,,,,,,,,,,,,,,817.5956394998357,1.0132660996168852,818.6797482995316,818.5966282002628,819.4794036997482,819.5795213999227,819.5795213999227,819.5795213999227,down,0,0.9010632000863552,,,,,,,,,,,,,,,,,,,,,,,,,,,,,,,,,,,,002,001,2023-11-15_15h59.38.773,ETproject_Chi_2023.1.1,2023.1.1,59.99934007208213,
121,Week,星期四,星期日,,Vert,late,down,image/Chi_late.png,"[0, 0.4]","[0, -0.4]",3,congruent,,,,,,,,,,,,,,,,,,,,,,,,,,,,,,,,,,,,,,0,15,15,22,,,,,,,,,,,,,,,,,,,,,,,,,,,,,,820.5167820993811,0.9993826001882553,821.6121225999668,821.5289198998362,822.4117956999689,822.5118137001991,822.5118137001991,822.5118137001991,up,0,0.7525439998134971,,,,,,,,,,,,,,,,,,,,,,,,,,,,,,,,,,,,002,001,2023-11-15_15h59.38.773,ETproject_Chi_2023.1.1,2023.1.1,59.99934007208213,
56,Month,五月,二月,,Vert,early,down,image/Chi_early.png,"[0, 0.4]","[0, -0.4]",3,incongruent,,,,,,,,,,,,,,,,,,,,,,,,,,,,,,,,,,,,,,0,16,16,3,,,,,,,,,,,,,,,,,,,,,,,,,,,,,,823.30814609956,1.0136131001636386,824.3945826999843,824.3112212000415,825.1942697996274,825.2943896995857,825.2943896995857,825.2943896995857,down,1,0.8657708000391722,,,,,,,,,,,,,,,,,,,,,,,,,,,,,,,,,,,,002,001,2023-11-15_15h59.38.773,ETproject_Chi_2023.1.1,2023.1.1,59.99934007208213,
3,Month,三月,四月,,Hori,early,left,image/Chi_early.png,"[-0.4, 0]","[0.4, 0]",1,congruent,,,,,,,,,,,,,,,,,,,,,,,,,,,,,,,,,,,,,,0,17,17,19,,,,,,,,,,,,,,,,,,,,,,,,,,,,,,826.1852180995047,1.0115098003298044,827.2767243999988,827.1935871001333,828.076534899883,828.1765666995198,828.1765666995198,828.1765666995198,left,1,0.7361535998061299,,,,,,,,,,,,,,,,,,,,,,,,,,,,,,,,,,,,002,001,2023-11-15_15h59.38.773,ETproject_Chi_2023.1.1,2023.1.1,59.99934007208213,
60,Month,六月,五月,,Hori,late,left,image/Chi_late.png,"[-0.4, 0]","[0.4, 0]",1,incongruent,,,,,,,,,,,,,,,,,,,,,,,,,,,,,,,,,,,,,,0,18,18,43,,,,,,,,,,,,,,,,,,,,,,,,,,,,,,828.9563873000443,1.0117068998515606,830.0426826998591,829.9593933997676,830.8424225999042,830.9423217996955,830.9423217996955,830.9423217996955,left,1,0.8263583993539214,,,,,,,,,,,,,,,,,,,,,,,,,,,,,,,,,,,,002,001,2023-11-15_15h59.38.773,ETproject_Chi_2023.1.1,2023.1.1,59.99934007208213,
15,Month,六月,九月 ,,Hori,late,right,image/Chi_late.png,"[-0.4, 0]","[0.4, 0]",3,congruent,,,,,,,,,,,,,,,,,,,,,,,,,,,,,,,,,,,,,,0,19,19,42,,,,,,,,,,,,,,,,,,,,,,,,,,,,,,831.799409000203,1.0118227005004883,832.8919974993914,832.808334399946,833.691616400145,833.7914773002267,833.7914773002267,833.7914773002267,right,1,0.9533728994429111,,,,,,,,,,,,,,,,,,,,,,,,,,,,,,,,,,,,002,001,2023-11-15_15h59.38.773,ETproject_Chi_2023.1.1,2023.1.1,59.99934007208213,
27,Month,五月,六月,,Vert,early,up,image/Chi_early.png,"[0, 0.4]","[0, -0.4]",1,congruent,,,,,,,,,,,,,,,,,,,,,,,,,,,,,,,,,,,,,,0,20,20,48,,,,,,,,,,,,,,,,,,,,,,,,,,,,,,834.7861134996638,1.0115930000320077,835.874080600217,835.7907771002501,836.6738585997373,836.7736794995144,836.7736794995144,836.7736794995144,up,1,0.779161999002099,,,,,,,,,,,,,,,,,,,,,,,,,,,,,,,,,,,,002,001,2023-11-15_15h59.38.773,ETproject_Chi_2023.1.1,2023.1.1,59.99934007208213,
35,Month,五月,七月,,Vert,late,down,image/Chi_late.png,"[0, 0.4]","[0, -0.4]",2,congruent,,,,,,,,,,,,,,,,,,,,,,,,,,,,,,,,,,,,,,0,21,21,4,,,,,,,,,,,,,,,,,,,,,,,,,,,,,,837.5828647995368,1.0138480002060533,838.6731209000573,838.5898315999657,839.4729599002749,839.5728704994544,839.5728704994544,839.5728704994544,down,1,0.8437716001644731,,,,,,,,,,,,,,,,,,,,,,,,,,,,,,,,,,,,002,001,2023-11-15_15h59.38.773,ETproject_Chi_2023.1.1,2023.1.1,59.99934007208213,
100,Week,星期四,星期六,,Hori,early,left,image/Chi_early.png,"[-0.4, 0]","[0.4, 0]",2,congruent,,,,,,,,,,,,,,,,,,,,,,,,,,,,,,,,,,,,,,0,22,22,11,,,,,,,,,,,,,,,,,,,,,,,,,,,,,,841.4469774998724,1.0152274994179606,842.538615799509,842.455331299454,843.3382658995688,843.4382547000423,843.4382547000423,843.4382547000423,left,1,1.2099716002121568,,,,,,,,,,,,,,,,,,,,,,,,,,,,,,,,,,,,002,001,2023-11-15_15h59.38.773,ETproject_Chi_2023.1.1,2023.1.1,59.99934007208213,
98,Week,星期二,星期四,,Hori,early,left,image/Chi_early.png,"[-0.4, 0]","[0.4, 0]",2,congruent,,,,,,,,,,,,,,,,,,,,,,,,,,,,,,,,,,,,,,0,23,23,47,,,,,,,,,,,,,,,,,,,,,,,,,,,,,,844.6822231998667,1.0116488998755813,845.7709154002368,845.6875625001267,846.570550000295,846.6705316994339,846.6705316994339,846.6705316994339,left,1,0.7379684997722507,,,,,,,,,,,,,,,,,,,,,,,,,,,,,,,,,,,,002,001,2023-11-15_15h59.38.773,ETproject_Chi_2023.1.1,2023.1.1,59.99934007208213,
49,Month,六月,五月,,Hori,early,right,image/Chi_early.png,"[-0.4, 0]","[0.4, 0]",1,incongruent,,,,,,,,,,,,,,,,,,,,,,,,,,,,,,,,,,,,,,0,24,24,20,,,,,,,,,,,,,,,,,,,,,,,,,,,,,,848.442327699624,1.0147259999066591,849.5363128995523,849.452927599661,850.3360379999503,850.4358674995601,850.4358674995601,850.4358674995601,right,1,0.9491580994799733,,,,,,,,,,,,,,,,,,,,,,,,,,,,,,,,,,,,002,001,2023-11-15_15h59.38.773,ETproject_Chi_2023.1.1,2023.1.1,59.99934007208213,
74,Month,六月,四月,,Vert,late,up,image/Chi_late.png,"[0, 0.4]","[0, -0.4]",2,incongruent,,,,,,,,,,,,,,,,,,,,,,,,,,,,,,,,,,,,,,0,25,25,27,,,,,,,,,,,,,,,,,,,,,,,,,,,,,,852.411304499954,1.014504199847579,853.5017107995227,853.4185009999201,854.3012586999685,854.4012383995578,854.4012383995578,854.4012383995578,down,0,0.8880409002304077,,,,,,,,,,,,,,,,,,,,,,,,,,,,,,,,,,,,002,001,2023-11-15_15h59.38.773,ETproject_Chi_2023.1.1,2023.1.1,59.99934007208213,
20,Month,十月 ,十二月,,Hori,late,right,image/Chi_late.png,"[-0.4, 0]","[0.4, 0]",2,congruent,,,,,,,,,,,,,,,,,,,,,,,,,,,,,,,,,,,,,,0,26,26,24,,,,,,,,,,,,,,,,,,,,,,,,,,,,,,855.325955200009,0.9991846000775695,856.4175525000319,856.3339066999033,857.2169456994161,857.3171394001693,857.3171394001693,857.3171394001693,left,0,0.9547840002924204,,,,,,,,,,,,,,,,,,,,,,,,,,,,,,,,,,,,002,001,2023-11-15_15h59.38.773,ETproject_Chi_2023.1.1,2023.1.1,59.99934007208213,
138,Week,星期一,星期日,,Hori,late,left,image/Chi_late.png,"[-0.4, 0]","[0.4, 0]",1,incongruent,,,,,,,,,,,,,,,,,,,,,,,,,,,,,,,,,,,,,,0,27,27,18,,,,,,,,,,,,,,,,,,,,,,,,,,,,,,858.3043561996892,1.0157551998272538,859.399618299678,859.3163193995133,860.199445899576,860.2992618000135,860.2992618000135,860.2992618000135,left,1,0.7731729997321963,,,,,,,,,,,,,,,,,,,,,,,,,,,,,,,,,,,,002,001,2023-11-15_15h59.38.773,ETproject_Chi_2023.1.1,2023.1.1,59.99934007208213,
114,Week,星期四,星期六,,Vert,early,up,image/Chi_early.png,"[0, 0.4]","[0, -0.4]",2,congruent,,,,,,,,,,,,,,,,,,,,,,,,,,,,,,,,,,,,,,0,28,28,1,,,,,,,,,,,,,,,,,,,,,,,,,,,,,,862.1087138997391,1.0153862005099654,863.1983931995928,863.1150420997292,863.9981690002605,864.0979532999918,864.0979532999918,864.0979532999918,up,1,0.877887899056077,,,,,,,,,,,,,,,,,,,,,,,,,,,,,,,,,,,,002,001,2023-11-15_15h59.38.773,ETproject_Chi_2023.1.1,2023.1.1,59.99934007208213,
139,Week,星期三 ,星期一,,Vert,early,down,image/Chi_early.png,"[0, 0.4]","[0, -0.4]",2,incongruent,,,,,,,,,,,,,,,,,,,,,,,,,,,,,,,,,,,,,,0,29,29,13,,,,,,,,,,,,,,,,,,,,,,,,,,,,,,865.0048096999526,1.015663200058043,866.0976956998929,866.0141612999141,866.8972704000771,866.9971824996173,866.9971824996173,866.9971824996173,down,1,0.771467899903655,,,,,,,,,,,,,,,,,,,,,,,,,,,,,,,,,,,,002,001,2023-11-15_15h59.38.773,ETproject_Chi_2023.1.1,2023.1.1,59.99934007208213,
1,Month,一月,五月,,Hori,early,left,image/Chi_early.png,"[-0.4, 0]","[0.4, 0]",4,congruent,,,,,,,,,,,,,,,,,,,,,,,,,,,,,,,,,,,,,,0,30,30,34,,,,,,,,,,,,,,,,,,,,,,,,,,,,,,867.8004880994558,0.9990563001483679,868.8965178998187,868.8134022997692,869.6962452996522,869.7962017999962,869.7962017999962,869.7962017999962,left,1,0.6200858997181058,,,,,,,,,,,,,,,,,,,,,,,,,,,,,,,,,,,,002,001,2023-11-15_15h59.38.773,ETproject_Chi_2023.1.1,2023.1.1,59.99934007208213,
17,Month,一月,五月,,Vert,early,up,image/Chi_early.png,"[0, 0.4]","[0, -0.4]",4,congruent,,,,,,,,,,,,,,,,,,,,,,,,,,,,,,,,,,,,,,0,31,31,35,,,,,,,,,,,,,,,,,,,,,,,,,,,,,,870.4516062997282,1.0120166996493936,871.5455927997828,871.4622732996941,872.3454598998651,872.4453635001555,872.4453635001555,872.4453635001555,up,1,0.5865882998332381,,,,,,,,,,,,,,,,,,,,,,,,,,,,,,,,,,,,002,001,2023-11-15_15h59.38.773,ETproject_Chi_2023.1.1,2023.1.1,59.99934007208213,
112,Week,星期二,星期四,,Vert,early,up,image/Chi_early.png,"[0, 0.4]","[0, -0.4]",2,congruent,,,,,,,,,,,,,,,,,,,,,,,,,,,,,,,,,,,,,,0,32,32,41,,,,,,,,,,,,,,,,,,,,,,,,,,,,,,873.0736123993993,1.0105586992576718,874.1614490998909,874.0780662000179,874.9612122001126,875.0611710995436,875.0611710995436,875.0611710995436,up,1,1.0031265001744032,,,,,,,,,,,,,,,,,,,,,,,,,,,,,,,,,,,,002,001,2023-11-15_15h59.38.773,ETproject_Chi_2023.1.1,2023.1.1,59.99934007208213,
125,Week,星期四,星期一,,Hori,early,right,image/Chi_early.png,"[-0.4, 0]","[0.4, 0]",3,incongruent,,,,,,,,,,,,,,,,,,,,,,,,,,,,,,,,,,,,,,0,33,33,31,,,,,,,,,,,,,,,,,,,,,,,,,,,,,,876.0986053999513,0.9990787003189325,877.1937953997403,877.1103953998536,877.9935550000519,878.0935640996322,878.0935640996322,878.0935640996322,right,1,0.9075266998261213,,,,,,,,,,,,,,,,,,,,,,,,,,,,,,,,,,,,002,001,2023-11-15_15h59.38.773,ETproject_Chi_2023.1.1,2023.1.1,59.99934007208213,
79,Month,三月,二月,,Vert,late,up,image/Chi_late.png,"[0, 0.4]","[0, -0.4]",1,incongruent,,,,,,,,,,,,,,,,,,,,,,,,,,,,,,,,,,,,,,0,34,34,8,,,,,,,,,,,,,,,,,,,,,,,,,,,,,,879.0434782998636,1.0154809998348355,880.1261986996979,880.0429106997326,880.9259348995984,881.0258569000289,881.0258569000289,881.0258569000289,up,1,0.9660787992179394,,,,,,,,,,,,,,,,,,,,,,,,,,,,,,,,,,,,002,001,2023-11-15_15h59.38.773,ETproject_Chi_2023.1.1,2023.1.1,59.99934007208213,
147,Week,星期五,星期二,,Vert,late,up,image/Chi_late.png,"[0, 0.4]","[0, -0.4]",3,incongruent,,,,,,,,,,,,,,,,,,,,,,,,,,,,,,,,,,,,,,0,35,35,21,,,,,,,,,,,,,,,,,,,,,,,,,,,,,,882.0136000001803,1.015259999781847,883.1084102001041,883.0252347998321,883.9082541996613,884.0082987993956,884.0082987993956,884.0082987993956,up,1,1.1196956001222134,,,,,,,,,,,,,,,,,,,,,,,,,,,,,,,,,,,,002,001,2023-11-15_15h59.38.773,ETproject_Chi_2023.1.1,2023.1.1,59.99934007208213,
67,Month,七月,四月,,Vert,late,up,image/Chi_late.png,"[0, 0.4]","[0, -0.4]",3,incongruent,,,,,,,,,,,,,,,,,,,,,,,,,,,,,,,,,,,,,,0,36,36,6,,,,,,,,,,,,,,,,,,,,,,,,,,,,,,886.1628805994987,1.0144510995596647,887.257283099927,887.1736303996295,888.0568613000214,888.1570143001154,888.1570143001154,888.1570143001154,up,1,0.7718611992895603,,,,,,,,,,,,,,,,,,,,,,,,,,,,,,,,,,,,002,001,2023-11-15_15h59.38.773,ETproject_Chi_2023.1.1,2023.1.1,59.99934007208213,
