No,Category,earlier_stim,later_stim,conguency,orientation,instruction,corr_resp,Instruction_stim,early_position,late_position,distance,congruency,Image,Qustion,Response,CorrAns,Path,prac_block.thisRepN,prac_block.thisTrialN,prac_block.thisN,prac_block.thisIndex,trials.thisRepN,trials.thisTrialN,trials.thisN,trials.thisIndex,block1.thisRepN,block1.thisTrialN,block1.thisN,block1.thisIndex,break1.thisRepN,break1.thisTrialN,break1.thisN,break1.thisIndex,block2.thisRepN,block2.thisTrialN,block2.thisN,block2.thisIndex,break2.thisRepN,break2.thisTrialN,break2.thisN,break2.thisIndex,block3.thisRepN,block3.thisTrialN,block3.thisN,block3.thisIndex,break3.thisRepN,break3.thisTrialN,break3.thisN,break3.thisIndex,block4.thisRepN,block4.thisTrialN,block4.thisN,block4.thisIndex,intro_1.started,intro_1.stopped,intro_2.started,intro2_resp.started,intro2_resp.keys,intro2_resp.rt,Intro_3.started,intro3_resp.started,intro3_resp.keys,intro3_resp.rt,pracintro.started,pracintro_resp.started,pracintro_resp.keys,pracintro_resp.rt,image.started,early.started,RESP.started,late.started,pracfeedback.started,pracfeedback.stopped,image.stopped,text_4.started,text_5.started,text_4.stopped,baselinerecord.started,intro_5.started,intro5_resp.started,intro5_resp.keys,intro5_resp.rt,main_image_2.started,etRecord.started,main_image_2.stopped,fix.started,fix.stopped,main_early.started,ct_resp.started,main_late.started,ct_resp.keys,ct_resp.corr,ct_resp.rt,intro.started,intro2_resp_2.started,intro2_resp_2.keys,intro2_resp_2.rt,fengjing.started,text.started,fengjing.stopped,text.stopped,key_resp.started,text_2.started,text_3.started,key_resp.keys,key_resp.corr,key_resp.rt,intro_6.started,intro5_resp_2.started,intro5_resp_2.keys,intro5_resp_2.rt,intro_3.started,intro2_resp_3.started,intro2_resp_3.keys,intro2_resp_3.rt,intro_7.started,intro2_resp_5.started,intro2_resp_5.keys,intro2_resp_5.rt,intro_4.started,intro2_resp_4.started,intro2_resp_4.keys,intro2_resp_4.rt,intro_8.started,intro2_resp_6.started,intro2_resp_6.keys,intro2_resp_6.rt,theend.started,theend.stopped,participant,session,date,expName,psychopyVersion,frameRate,
,,,,,,,,,,,,,,,,,,,,,,,,,,,,,,,,,,,,,,,,,,,,,,,,,,,,,,93.59171710000373,95.60050089999277,95.60050089999277,95.60050089999277,space,9.777791000000434,,,,,,,,,,,,,,,,,,,,,,,,,,,,,,,,,,,,,,,,,,,,,,,,,,,,,,,,,,,,,,,,,,,,,,,005,001,2023-11-16_14h12.06.201,ETproject_Chi_2023.1.1,2023.1.1,60.050250050874325,
,,,,,,,,,,,,,,,,,,,,,,,,,,,,,,,,,,,,,,,,,,,,,,,,,,,,,,,,,,,,105.39741550000326,105.39741550000326,space,18.79766810000001,,,,,,,,,,,,,,,,,,,,,,,,,,,,,,,,,,,,,,,,,,,,,,,,,,,,,,,,,,,,,,,,,,,005,001,2023-11-16_14h12.06.201,ETproject_Chi_2023.1.1,2023.1.1,60.050250050874325,
4,practice,星期日,星期一,congruent,Vert,late,down,image/Chi_late.png,"[0, 0.4]","[0, -0.4]",,,,,,,,0,0,0,0,0,0,0,3,,,,,,,,,,,,,,,,,,,,,,,,,,,,,,,,,,,,,,,124.2660554000031,124.2660554000031,space,13.048974300007103,137.39676669999608,138.35268749999523,138.35268749999523,138.35268749999523,143.36089820000052,,,,,,,,,,,,,,,,,,,,,,,,,,,,,,,,,,,,,,,,,,,,,,,,,,,,,,,,,,005,001,2023-11-16_14h12.06.201,ETproject_Chi_2023.1.1,2023.1.1,60.050250050874325,
1,practice,星期三 ,星期四,congruent,Hori,early,left,image/Chi_early.png,"[-0.4, 0]","[0.4, 0]",,,,,,,,0,0,0,0,0,1,1,0,,,,,,,,,,,,,,,,,,,,,,,,,,,,,,,,,,,,,,,,,,,144.35819230000197,145.3505148999975,145.3505148999975,145.3505148999975,146.98348169999372,147.98426689999178,,,,,,,,,,,,,,,,,,,,,,,,,,,,,,,,,,,,,,,,,,,,,,,,,,,,,,,,,005,001,2023-11-16_14h12.06.201,ETproject_Chi_2023.1.1,2023.1.1,60.050250050874325,
5,practice,星期二,星期一,incongruent,Hori,early,right,image/Chi_early.png,"[-0.4, 0]","[0.4, 0]",,,,,,,,0,0,0,0,0,2,2,4,,,,,,,,,,,,,,,,,,,,,,,,,,,,,,,,,,,,,,,,,,,147.98426689999178,148.98282390000531,148.98282390000531,148.98282390000531,149.99914759999956,150.99998090000008,148.98282390000531,,,,,,,,,,,,,,,,,,,,,,,,,,,,,,,,,,,,,,,,,,,,,,,,,,,,,,,,005,001,2023-11-16_14h12.06.201,ETproject_Chi_2023.1.1,2023.1.1,60.050250050874325,
3,practice,星期一,星期二,congruent,Vert,early,up,image/Chi_early.png,"[0, 0.4]","[0, -0.4]",,,,,,,,0,0,0,0,0,3,3,2,,,,,,,,,,,,,,,,,,,,,,,,,,,,,,,,,,,,,,,,,,,150.99998090000008,151.9982977000036,151.9982977000036,151.9982977000036,153.21487029999844,154.22292770000058,151.9982977000036,,,,,,,,,,,,,,,,,,,,,,,,,,,,,,,,,,,,,,,,,,,,,,,,,,,,,,,,005,001,2023-11-16_14h12.06.201,ETproject_Chi_2023.1.1,2023.1.1,60.050250050874325,
6,practice,星期四,星期三 ,incongruent,Hori,late,left,image/Chi_late.png,"[-0.4, 0]","[0.4, 0]",,,,,,,,0,0,0,0,0,4,4,5,,,,,,,,,,,,,,,,,,,,,,,,,,,,,,,,,,,,,,,,,,,154.22292770000058,155.2306202000036,155.2306202000036,155.2306202000036,156.3304516999924,157.33624340000097,,,,,,,,,,,,,,,,,,,,,,,,,,,,,,,,,,,,,,,,,,,,,,,,,,,,,,,,,005,001,2023-11-16_14h12.06.201,ETproject_Chi_2023.1.1,2023.1.1,60.050250050874325,
7,practice,星期三 ,星期二,incongruent,Vert,early,down,image/Chi_early.png,"[0, 0.4]","[0, -0.4]",,,,,,,,0,0,0,0,0,5,5,6,,,,,,,,,,,,,,,,,,,,,,,,,,,,,,,,,,,,,,,,,,,157.33624340000097,158.3463791999966,158.3463791999966,158.3463791999966,159.42930709999928,160.43745309999213,,,,,,,,,,,,,,,,,,,,,,,,,,,,,,,,,,,,,,,,,,,,,,,,,,,,,,,,,005,001,2023-11-16_14h12.06.201,ETproject_Chi_2023.1.1,2023.1.1,60.050250050874325,
2,practice,星期五,星期六,congruent,Hori,late,right,image/Chi_late.png,"[-0.4, 0]","[0.4, 0]",,,,,,,,0,0,0,0,0,6,6,1,,,,,,,,,,,,,,,,,,,,,,,,,,,,,,,,,,,,,,,,,,,160.43745309999213,161.44527830000152,161.44527830000152,161.44527830000152,162.49512839999807,163.49659480000264,,,,,,,,,,,,,,,,,,,,,,,,,,,,,,,,,,,,,,,,,,,,,,,,,,,,,,,,,005,001,2023-11-16_14h12.06.201,ETproject_Chi_2023.1.1,2023.1.1,60.050250050874325,
8,practice,星期六,星期五,incongruent,Vert,late,up,image/Chi_late.png,"[0, 0.4]","[0, -0.4]",,,,,,,,0,0,0,0,0,7,7,7,,,,,,,,,,,,,,,,,,,,,,,,,,,,,,,,,,,,,,,,,,,163.49659480000264,164.51096099999268,164.51096099999268,164.51096099999268,165.57737679999263,166.57731789999525,,,,,,,,,,,,,,,,,,,,,,,,,,,,,,,,,,,,,,,,,,,,,,,,,,,,,,,,,005,001,2023-11-16_14h12.06.201,ETproject_Chi_2023.1.1,2023.1.1,60.050250050874325,
,,,,,,,,,,,,,,,,,,0,0,0,0,,,,,,,,,,,,,,,,,,,,,,,,,,,,,,,,,,,,,,,,,,,,,,,,,,,,,,,,,,,,,,,,,,,,,,,,,,,,,,,,,,,,,,,,,,,,,,,,,,,,,,,,,,,,,005,001,2023-11-16_14h12.06.201,ETproject_Chi_2023.1.1,2023.1.1,60.050250050874325,
,,,,,,,,,,,,,,,,,,,,,,,,,,,,,,,,,,,,,,,,,,,,,,,,,,,,,,,,,,,,,,,,,,,,,,,,,,,166.57731789999525,169.57595020000008,169.59233200000017,3.014577599999029,173.59137300000293,173.59137300000293,space,1.356141900003422,,,,,,,,,,,,,,,,,,,,,,,,,,,,,,,,,,,,,,,,,,,,,,,,005,001,2023-11-16_14h12.06.201,ETproject_Chi_2023.1.1,2023.1.1,60.050250050874325,
101,Week,星期五,星期六,,Hori,early,left,image/Chi_early.png,"[-0.4, 0]","[0.4, 0]",1,congruent,,,,,,,,,,,,,,0,0,0,42,,,,,,,,,,,,,,,,,,,,,,,,,,,,,,,,,,,,,,,,,,,,,,,,,,,,,,174.99306759999308,0.9997769000037806,176.00717470000382,176.05705139999918,176.85675160000392,176.97349390000454,176.97349390000454,176.97349390000454,left,1,0.7894635999982711,,,,,,,,,,,,,,,,,,,,,,,,,,,,,,,,,,,,,005,001,2023-11-16_14h12.06.201,ETproject_Chi_2023.1.1,2023.1.1,60.050250050874325,
24,Month,六月,九月 ,,Vert,early,up,image/Chi_early.png,"[0, 0.4]","[0, -0.4]",3,congruent,,,,,,,,,,,,,,0,1,1,33,,,,,,,,,,,,,,,,,,,,,,,,,,,,,,,,,,,,,,,,,,,,,,,,,,,,,,177.80266820000543,1.0098529999959283,178.80605889999424,178.8895063999953,179.68930600000022,179.78914209999493,179.78914209999493,179.78914209999493,up,1,1.1732875000016065,,,,,,,,,,,,,,,,,,,,,,,,,,,,,,,,,,,,,005,001,2023-11-16_14h12.06.201,ETproject_Chi_2023.1.1,2023.1.1,60.050250050874325,
59,Month,七月,三月,,Vert,late,up,image/Chi_late.png,"[0, 0.4]","[0, -0.4]",4,incongruent,,,,,,,,,,,,,,0,2,2,47,,,,,,,,,,,,,,,,,,,,,,,,,,,,,,,,,,,,,,,,,,,,,,,,,,,,,,181.00116630000412,1.0148959000071045,182.00508580000314,182.0884606000036,182.88813940000546,182.98818790000223,182.98818790000223,182.98818790000223,up,1,1.0231903999956558,,,,,,,,,,,,,,,,,,,,,,,,,,,,,,,,,,,,,005,001,2023-11-16_14h12.06.201,ETproject_Chi_2023.1.1,2023.1.1,60.050250050874325,
118,Week,星期一,星期四,,Vert,late,down,image/Chi_late.png,"[0, 0.4]","[0, -0.4]",3,congruent,,,,,,,,,,,,,,0,3,3,45,,,,,,,,,,,,,,,,,,,,,,,,,,,,,,,,,,,,,,,,,,,,,,,,,,,,,,184.04348949999257,1.0146793000021717,185.05422380000527,185.13742329999513,185.93704059999436,186.03705240000272,186.03705240000272,186.03705240000272,down,1,1.0383262000104878,,,,,,,,,,,,,,,,,,,,,,,,,,,,,,,,,,,,,005,001,2023-11-16_14h12.06.201,ETproject_Chi_2023.1.1,2023.1.1,60.050250050874325,
34,Month,七月,十月 ,,Vert,late,down,image/Chi_late.png,"[0, 0.4]","[0, -0.4]",3,congruent,,,,,,,,,,,,,,0,4,4,11,,,,,,,,,,,,,,,,,,,,,,,,,,,,,,,,,,,,,,,,,,,,,,,,,,,,,,187.11408200000005,1.013728000005358,188.11995480000041,188.2032576000056,189.00297349999892,189.10297079999873,189.10297079999873,189.10297079999873,down,1,1.0194382999907248,,,,,,,,,,,,,,,,,,,,,,,,,,,,,,,,,,,,,005,001,2023-11-16_14h12.06.201,ETproject_Chi_2023.1.1,2023.1.1,60.050250050874325,
77,Month,九月 ,七月,,Vert,late,up,image/Chi_late.png,"[0, 0.4]","[0, -0.4]",2,incongruent,,,,,,,,,,,,,,0,5,5,43,,,,,,,,,,,,,,,,,,,,,,,,,,,,,,,,,,,,,,,,,,,,,,,,,,,,,,190.16335819999222,1.0132438000000548,191.16884119999304,191.25214039999992,192.0517652999988,192.15195070000482,192.15195070000482,192.15195070000482,up,1,0.9957465000043157,,,,,,,,,,,,,,,,,,,,,,,,,,,,,,,,,,,,,005,001,2023-11-16_14h12.06.201,ETproject_Chi_2023.1.1,2023.1.1,60.050250050874325,
101,Week,星期五,星期日,,Hori,early,left,image/Chi_early.png,"[-0.4, 0]","[0.4, 0]",2,congruent,,,,,,,,,,,,,,0,6,6,40,,,,,,,,,,,,,,,,,,,,,,,,,,,,,,,,,,,,,,,,,,,,,,,,,,,,,,193.1824013000005,1.010664599991287,194.18437010000343,194.26792260000366,195.0675751999952,195.1675477999961,195.1675477999961,195.1675477999961,left,1,0.9389875000051688,,,,,,,,,,,,,,,,,,,,,,,,,,,,,,,,,,,,,005,001,2023-11-16_14h12.06.201,ETproject_Chi_2023.1.1,2023.1.1,60.050250050874325,
116,Week,星期六,星期日,,Vert,early,up,image/Chi_early.png,"[0, 0.4]","[0, -0.4]",1,congruent,,,,,,,,,,,,,,0,7,7,10,,,,,,,,,,,,,,,,,,,,,,,,,,,,,,,,,,,,,,,,,,,,,,,,,,,,,,196.14213870000094,1.0116810999898007,197.15009250000003,197.23340430000098,198.0330413000047,198.13327389999176,198.13327389999176,198.13327389999176,up,1,1.069638400003896,,,,,,,,,,,,,,,,,,,,,,,,,,,,,,,,,,,,,005,001,2023-11-16_14h12.06.201,ETproject_Chi_2023.1.1,2023.1.1,60.050250050874325,
23,Month,七月,十一月 ,,Vert,early,up,image/Chi_early.png,"[0, 0.4]","[0, -0.4]",4,congruent,,,,,,,,,,,,,,0,8,8,48,,,,,,,,,,,,,,,,,,,,,,,,,,,,,,,,,,,,,,,,,,,,,,,,,,,,,,199.24201990000438,1.010928600007901,200.24913599999854,200.33241889999772,201.13208899999154,201.23223919999145,201.23223919999145,201.23223919999145,up,1,1.002902100008214,,,,,,,,,,,,,,,,,,,,,,,,,,,,,,,,,,,,,005,001,2023-11-16_14h12.06.201,ETproject_Chi_2023.1.1,2023.1.1,60.050250050874325,
114,Week,星期四,星期日,,Vert,early,up,image/Chi_early.png,"[0, 0.4]","[0, -0.4]",3,congruent,,,,,,,,,,,,,,0,9,9,12,,,,,,,,,,,,,,,,,,,,,,,,,,,,,,,,,,,,,,,,,,,,,,,,,,,,,,202.2782262999972,1.0103882999974303,203.28145769999537,203.36475559999235,204.16445699999167,204.26461270000436,204.26461270000436,204.26461270000436,up,1,1.1631600000109756,,,,,,,,,,,,,,,,,,,,,,,,,,,,,,,,,,,,,005,001,2023-11-16_14h12.06.201,ETproject_Chi_2023.1.1,2023.1.1,60.050250050874325,
126,Week,星期三 ,星期二,,Hori,early,right,image/Chi_early.png,"[-0.4, 0]","[0.4, 0]",1,incongruent,,,,,,,,,,,,,,0,10,10,25,,,,,,,,,,,,,,,,,,,,,,,,,,,,,,,,,,,,,,,,,,,,,,,,,,,,,,205.46252869999444,1.0106449000013527,206.46375470000203,206.5470495000045,207.3469555000047,207.44674279999163,207.44674279999163,207.44674279999163,right,1,1.2682657999976072,,,,,,,,,,,,,,,,,,,,,,,,,,,,,,,,,,,,,005,001,2023-11-16_14h12.06.201,ETproject_Chi_2023.1.1,2023.1.1,60.050250050874325,
98,Week,星期二,星期三 ,,Hori,early,left,image/Chi_early.png,"[-0.4, 0]","[0.4, 0]",1,congruent,,,,,,,,,,,,,,0,11,11,49,,,,,,,,,,,,,,,,,,,,,,,,,,,,,,,,,,,,,,,,,,,,,,,,,,,,,,208.75699480000185,1.0098968999955105,209.76272009999957,209.84609259999706,210.64568309999595,210.7456882999977,210.7456882999977,210.7456882999977,left,1,0.8414060999930371,,,,,,,,,,,,,,,,,,,,,,,,,,,,,,,,,,,,,005,001,2023-11-16_14h12.06.201,ETproject_Chi_2023.1.1,2023.1.1,60.050250050874325,
12,Week,星期日,星期四,,Vert,late,up,image/Chi_late.png,"[0, 0.4]","[0, -0.4]",3,incongruent,,,,,,,,,,,,,,0,12,12,9,,,,,,,,,,,,,,,,,,,,,,,,,,,,,,,,,,,,,,,,,,,,,,,,,,,,,,211.6300198999961,1.0105525000108173,212.6284689000022,212.71160199999576,213.51144159999967,213.61156209999172,213.61156209999172,213.61156209999172,up,1,1.0080782000004547,,,,,,,,,,,,,,,,,,,,,,,,,,,,,,,,,,,,,005,001,2023-11-16_14h12.06.201,ETproject_Chi_2023.1.1,2023.1.1,60.050250050874325,
127,Week,星期五,星期三 ,,Hori,early,right,image/Chi_early.png,"[-0.4, 0]","[0.4, 0]",2,incongruent,,,,,,,,,,,,,,0,13,13,13,,,,,,,,,,,,,,,,,,,,,,,,,,,,,,,,,,,,,,,,,,,,,,,,,,,,,,214.65582729999733,1.012054300008458,215.6607084999996,215.74421099999745,216.54383059999964,216.6438949000003,216.6438949000003,216.6438949000003,right,1,0.9509856000076979,,,,,,,,,,,,,,,,,,,,,,,,,,,,,,,,,,,,,005,001,2023-11-16_14h12.06.201,ETproject_Chi_2023.1.1,2023.1.1,60.050250050874325,
63,Month,十二月,九月 ,,Vert,early,down,image/Chi_early.png,"[0, 0.4]","[0, -0.4]",3,incongruent,,,,,,,,,,,,,,0,14,14,22,,,,,,,,,,,,,,,,,,,,,,,,,,,,,,,,,,,,,,,,,,,,,,,,,,,,,,217.63837299999432,1.009865699990769,218.64318349999667,218.72637459999532,219.5259831000003,219.62612829999125,219.62612829999125,219.62612829999125,down,1,1.296834000007948,,,,,,,,,,,,,,,,,,,,,,,,,,,,,,,,,,,,,005,001,2023-11-16_14h12.06.201,ETproject_Chi_2023.1.1,2023.1.1,60.050250050874325,
1,Month,一月,二月 ,,Hori,early,left,image/Chi_early.png,"[-0.4, 0]","[0.4, 0]",1,congruent,,,,,,,,,,,,,,0,15,15,28,,,,,,,,,,,,,,,,,,,,,,,,,,,,,,,,,,,,,,,,,,,,,,,,,,,,,,220.95312089999788,1.011028199995053,221.95859300000302,222.04220820000046,222.84172100000433,222.94185489999654,222.94185489999654,222.94185489999654,left,1,0.7410340999922482,,,,,,,,,,,,,,,,,,,,,,,,,,,,,,,,,,,,,005,001,2023-11-16_14h12.06.201,ETproject_Chi_2023.1.1,2023.1.1,60.050250050874325,
46,Month,四月,一月,,Hori,late,left,image/Chi_late.png,"[-0.4, 0]","[0.4, 0]",3,incongruent,,,,,,,,,,,,,,0,16,16,14,,,,,,,,,,,,,,,,,,,,,,,,,,,,,,,,,,,,,,,,,,,,,,,,,,,,,,223.7168168999924,1.014304100011941,224.7243463999912,224.80772199999774,225.6074338000035,225.7074750000029,225.7074750000029,225.7074750000029,left,1,1.0161751999985427,,,,,,,,,,,,,,,,,,,,,,,,,,,,,,,,,,,,,005,001,2023-11-16_14h12.06.201,ETproject_Chi_2023.1.1,2023.1.1,60.050250050874325,
142,Week,星期五,星期四,,Vert,early,down,image/Chi_early.png,"[0, 0.4]","[0, -0.4]",1,incongruent,,,,,,,,,,,,,,0,17,17,0,,,,,,,,,,,,,,,,,,,,,,,,,,,,,,,,,,,,,,,,,,,,,,,,,,,,,,226.75514520000434,1.0101330000034068,227.75678640000115,227.84010190000117,228.63975980000396,228.73973329999717,228.73973329999717,228.73973329999717,down,1,0.8874053000035929,,,,,,,,,,,,,,,,,,,,,,,,,,,,,,,,,,,,,005,001,2023-11-16_14h12.06.201,ETproject_Chi_2023.1.1,2023.1.1,60.050250050874325,
6,Month,六月,十月 ,,Hori,early,left,image/Chi_early.png,"[-0.4, 0]","[0.4, 0]",4,congruent,,,,,,,,,,,,,,0,18,18,29,,,,,,,,,,,,,,,,,,,,,,,,,,,,,,,,,,,,,,,,,,,,,,,,,,,,,,229.66572459999588,1.0124496999924304,230.67233780000242,230.75566219999746,231.5555991000001,231.65559379999468,231.65559379999468,231.65559379999468,left,1,0.7159225000068545,,,,,,,,,,,,,,,,,,,,,,,,,,,,,,,,,,,,,005,001,2023-11-16_14h12.06.201,ETproject_Chi_2023.1.1,2023.1.1,60.050250050874325,
38,Month,八月,十月 ,,Vert,late,down,image/Chi_late.png,"[0, 0.4]","[0, -0.4]",2,congruent,,,,,,,,,,,,,,0,19,19,37,,,,,,,,,,,,,,,,,,,,,,,,,,,,,,,,,,,,,,,,,,,,,,,,,,,,,,232.40084459999343,1.0101088999945205,233.40488269999332,233.48818780000147,234.28786919999402,234.38792720000492,234.38792720000492,234.38792720000492,down,1,0.8864847999939229,,,,,,,,,,,,,,,,,,,,,,,,,,,,,,,,,,,,,005,001,2023-11-16_14h12.06.201,ETproject_Chi_2023.1.1,2023.1.1,60.050250050874325,
62,Month,十月 ,六月,,Vert,late,up,image/Chi_late.png,"[0, 0.4]","[0, -0.4]",4,incongruent,,,,,,,,,,,,,,0,20,20,27,,,,,,,,,,,,,,,,,,,,,,,,,,,,,,,,,,,,,,,,,,,,,,,,,,,,,,235.31962189999467,1.0120352000085404,236.32057349999377,236.40405100000498,237.20365250000032,237.3036795999942,237.3036795999942,237.3036795999942,up,1,0.7961122999986401,,,,,,,,,,,,,,,,,,,,,,,,,,,,,,,,,,,,,005,001,2023-11-16_14h12.06.201,ETproject_Chi_2023.1.1,2023.1.1,60.050250050874325,
45,Month,九月 ,五月,,Hori,late,left,image/Chi_late.png,"[-0.4, 0]","[0.4, 0]",4,incongruent,,,,,,,,,,,,,,0,21,21,39,,,,,,,,,,,,,,,,,,,,,,,,,,,,,,,,,,,,,,,,,,,,,,,,,,,,,,238.1291363999917,1.0116601000045193,239.13633599999594,239.21966170000087,240.01942090000375,240.11946329999773,240.11946329999773,240.11946329999773,left,1,0.8589922999963164,,,,,,,,,,,,,,,,,,,,,,,,,,,,,,,,,,,,,005,001,2023-11-16_14h12.06.201,ETproject_Chi_2023.1.1,2023.1.1,60.050250050874325,
136,Week,星期日,星期五,,Hori,late,left,image/Chi_late.png,"[-0.4, 0]","[0.4, 0]",2,incongruent,,,,,,,,,,,,,,0,22,22,17,,,,,,,,,,,,,,,,,,,,,,,,,,,,,,,,,,,,,,,,,,,,,,,,,,,,,,241.00934459999553,1.0140700000047218,242.01873680000426,242.1020137000014,242.90176439999777,243.00174540000444,243.00174540000444,243.00174540000444,left,1,0.8086028000107035,,,,,,,,,,,,,,,,,,,,,,,,,,,,,,,,,,,,,005,001,2023-11-16_14h12.06.201,ETproject_Chi_2023.1.1,2023.1.1,60.050250050874325,
141,Week,星期五,星期三 ,,Vert,early,down,image/Chi_early.png,"[0, 0.4]","[0, -0.4]",2,incongruent,,,,,,,,,,,,,,0,23,23,15,,,,,,,,,,,,,,,,,,,,,,,,,,,,,,,,,,,,,,,,,,,,,,,,,,,,,,243.8488151000056,1.0104932999965968,244.85119240000495,244.934425200001,245.73432679999678,245.83408079999208,245.83408079999208,245.83408079999208,down,1,0.8888639999931911,,,,,,,,,,,,,,,,,,,,,,,,,,,,,,,,,,,,,005,001,2023-11-16_14h12.06.201,ETproject_Chi_2023.1.1,2023.1.1,60.050250050874325,
99,Week,星期三 ,星期六,,Hori,early,left,image/Chi_early.png,"[-0.4, 0]","[0.4, 0]",3,congruent,,,,,,,,,,,,,,0,24,24,6,,,,,,,,,,,,,,,,,,,,,,,,,,,,,,,,,,,,,,,,,,,,,,,,,,,,,,246.75924430000305,1.0119294000032824,247.76687239999592,247.84999819999211,248.64993929999764,248.74982969999837,248.74982969999837,248.74982969999837,left,1,0.6376581999938935,,,,,,,,,,,,,,,,,,,,,,,,,,,,,,,,,,,,,005,001,2023-11-16_14h12.06.201,ETproject_Chi_2023.1.1,2023.1.1,60.050250050874325,
106,Week,星期三 ,星期六,,Hori,late,right,image/Chi_late.png,"[-0.4, 0]","[0.4, 0]",3,congruent,,,,,,,,,,,,,,0,25,25,3,,,,,,,,,,,,,,,,,,,,,,,,,,,,,,,,,,,,,,,,,,,,,,,,,,,,,,250.42764159999206,1.014757600001758,251.43230899999617,251.5157889999973,252.31547139999748,252.41532050000387,252.41532050000387,252.41532050000387,right,1,0.6595697000011569,,,,,,,,,,,,,,,,,,,,,,,,,,,,,,,,,,,,,005,001,2023-11-16_14h12.06.201,ETproject_Chi_2023.1.1,2023.1.1,60.050250050874325,
49,Month,七月,四月,,Hori,late,left,image/Chi_late.png,"[-0.4, 0]","[0.4, 0]",3,incongruent,,,,,,,,,,,,,,0,26,26,38,,,,,,,,,,,,,,,,,,,,,,,,,,,,,,,,,,,,,,,,,,,,,,,,,,,,,,253.10886900000332,1.0099026999960188,254.11472050000157,254.197940500002,254.99766779999482,255.0977070999943,255.0977070999943,255.0977070999943,left,1,0.816950899999938,,,,,,,,,,,,,,,,,,,,,,,,,,,,,,,,,,,,,005,001,2023-11-16_14h12.06.201,ETproject_Chi_2023.1.1,2023.1.1,60.050250050874325,
20,Month,四月,八月,,Vert,early,up,image/Chi_early.png,"[0, 0.4]","[0, -0.4]",4,congruent,,,,,,,,,,,,,,0,27,27,4,,,,,,,,,,,,,,,,,,,,,,,,,,,,,,,,,,,,,,,,,,,,,,,,,,,,,,255.95831940000062,1.0120658000087133,256.9638233000005,257.0471528000053,257.8467290999979,257.94670040000346,257.94670040000346,257.94670040000346,up,1,0.7195633000083035,,,,,,,,,,,,,,,,,,,,,,,,,,,,,,,,,,,,,005,001,2023-11-16_14h12.06.201,ETproject_Chi_2023.1.1,2023.1.1,60.050250050874325,
24,Month,四月,六月,,Vert,early,up,image/Chi_early.png,"[0, 0.4]","[0, -0.4]",2,congruent,,,,,,,,,,,,,,0,28,28,8,,,,,,,,,,,,,,,,,,,,,,,,,,,,,,,,,,,,,,,,,,,,,,,,,,,,,,258.69957549999526,0.9991632000019308,259.7128110000049,259.79616660000465,260.5958052999922,260.6957775000046,260.6957775000046,260.6957775000046,up,1,0.707632100005867,,,,,,,,,,,,,,,,,,,,,,,,,,,,,,,,,,,,,005,001,2023-11-16_14h12.06.201,ETproject_Chi_2023.1.1,2023.1.1,60.050250050874325,
139,Week,星期四,星期一,,Vert,early,down,image/Chi_early.png,"[0, 0.4]","[0, -0.4]",3,incongruent,,,,,,,,,,,,,,0,29,29,7,,,,,,,,,,,,,,,,,,,,,,,,,,,,,,,,,,,,,,,,,,,,,,,,,,,,,,261.4395411000005,1.0111367000063183,262.445269200005,262.5288031999953,263.3282423999917,263.4283232000016,263.4283232000016,263.4283232000016,down,1,0.8951305000082357,,,,,,,,,,,,,,,,,,,,,,,,,,,,,,,,,,,,,005,001,2023-11-16_14h12.06.201,ETproject_Chi_2023.1.1,2023.1.1,60.050250050874325,
125,Week,星期三 ,星期一,,Hori,early,right,image/Chi_early.png,"[-0.4, 0]","[0.4, 0]",2,incongruent,,,,,,,,,,,,,,0,30,30,5,,,,,,,,,,,,,,,,,,,,,,,,,,,,,,,,,,,,,,,,,,,,,,,,,,,,,,264.354313200005,1.0107496999989962,265.3609084000054,265.4444616999972,266.2441550999938,266.3440008000034,266.3440008000034,266.3440008000034,right,1,1.0753390000027139,,,,,,,,,,,,,,,,,,,,,,,,,,,,,,,,,,,,,005,001,2023-11-16_14h12.06.201,ETproject_Chi_2023.1.1,2023.1.1,60.050250050874325,
150,Week,星期日,星期五,,Vert,late,up,image/Chi_late.png,"[0, 0.4]","[0, -0.4]",2,incongruent,,,,,,,,,,,,,,0,31,31,46,,,,,,,,,,,,,,,,,,,,,,,,,,,,,,,,,,,,,,,,,,,,,,,,,,,,,,267.4619976999966,1.0106468000012683,268.4766103000002,268.54343049999443,269.3429412999976,269.4429713999998,269.4429713999998,269.4429713999998,up,1,0.7513353999966057,,,,,,,,,,,,,,,,,,,,,,,,,,,,,,,,,,,,,005,001,2023-11-16_14h12.06.201,ETproject_Chi_2023.1.1,2023.1.1,60.050250050874325,
132,Week,星期四,星期一,,Hori,late,left,image/Chi_late.png,"[-0.4, 0]","[0.4, 0]",3,incongruent,,,,,,,,,,,,,,0,32,32,19,,,,,,,,,,,,,,,,,,,,,,,,,,,,,,,,,,,,,,,,,,,,,,,,,,,,,,270.23468850000063,1.0110374000068987,271.24228920000314,271.32562030000554,272.12528930000553,272.2255626999977,272.2255626999977,272.2255626999977,left,1,0.8656093000026885,,,,,,,,,,,,,,,,,,,,,,,,,,,,,,,,,,,,,005,001,2023-11-16_14h12.06.201,ETproject_Chi_2023.1.1,2023.1.1,60.050250050874325,
148,Week,星期六,星期三 ,,Vert,late,up,image/Chi_late.png,"[0, 0.4]","[0, -0.4]",3,incongruent,,,,,,,,,,,,,,0,33,33,26,,,,,,,,,,,,,,,,,,,,,,,,,,,,,,,,,,,,,,,,,,,,,,,,,,,,,,273.1194445000001,1.0115573000075528,274.12477759999456,274.2080905000039,275.0077308000036,275.10784300000523,275.10784300000523,275.10784300000523,up,1,1.0632315000111703,,,,,,,,,,,,,,,,,,,,,,,,,,,,,,,,,,,,,005,001,2023-11-16_14h12.06.201,ETproject_Chi_2023.1.1,2023.1.1,60.050250050874325,
107,Week,星期四,星期六,,Hori,late,right,image/Chi_late.png,"[-0.4, 0]","[0.4, 0]",2,congruent,,,,,,,,,,,,,,0,34,34,16,,,,,,,,,,,,,,,,,,,,,,,,,,,,,,,,,,,,,,,,,,,,,,,,,,,,,,276.1950394000014,0.999074199993629,277.20712679999997,277.290450600005,278.09007839999686,278.19013849999465,278.19013849999465,278.19013849999465,right,1,0.9095818000059808,,,,,,,,,,,,,,,,,,,,,,,,,,,,,,,,,,,,,005,001,2023-11-16_14h12.06.201,ETproject_Chi_2023.1.1,2023.1.1,60.050250050874325,
50,Month,八月,五月,,Hori,late,left,image/Chi_late.png,"[-0.4, 0]","[0.4, 0]",3,incongruent,,,,,,,,,,,,,,0,35,35,35,,,,,,,,,,,,,,,,,,,,,,,,,,,,,,,,,,,,,,,,,,,,,,,,,,,,,,279.1294038999913,1.0148989000008442,280.13943429999927,280.2228960999928,281.0224782000005,281.12260190000234,281.12260190000234,281.12260190000234,left,1,0.7526238999998895,,,,,,,,,,,,,,,,,,,,,,,,,,,,,,,,,,,,,005,001,2023-11-16_14h12.06.201,ETproject_Chi_2023.1.1,2023.1.1,60.050250050874325,
120,Week,星期三 ,星期六,,Vert,late,down,image/Chi_late.png,"[0, 0.4]","[0, -0.4]",3,congruent,,,,,,,,,,,,,,0,36,36,34,,,,,,,,,,,,,,,,,,,,,,,,,,,,,,,,,,,,,,,,,,,,,,,,,,,,,,282.91410259999975,1.0148613000055775,283.92162239999743,284.00495429999137,284.8045473999955,284.90469779999694,284.90469779999694,284.90469779999694,down,1,0.8584030999918468,,,,,,,,,,,,,,,,,,,,,,,,,,,,,,,,,,,,,005,001,2023-11-16_14h12.06.201,ETproject_Chi_2023.1.1,2023.1.1,60.050250050874325,
78,Month,十月 ,八月,,Vert,late,up,image/Chi_late.png,"[0, 0.4]","[0, -0.4]",2,incongruent,,,,,,,,,,,,,,0,37,37,44,,,,,,,,,,,,,,,,,,,,,,,,,,,,,,,,,,,,,,,,,,,,,,,,,,,,,,285.79171869999846,1.0154925999959232,286.80385430000024,286.88728300000366,287.68713969999226,287.7869412,287.7869412,287.7869412,up,1,0.8724968000024091,,,,,,,,,,,,,,,,,,,,,,,,,,,,,,,,,,,,,005,001,2023-11-16_14h12.06.201,ETproject_Chi_2023.1.1,2023.1.1,60.050250050874325,
16,Month,六月,八月,,Hori,late,right,image/Chi_late.png,"[-0.4, 0]","[0.4, 0]",2,congruent,,,,,,,,,,,,,,0,38,38,30,,,,,,,,,,,,,,,,,,,,,,,,,,,,,,,,,,,,,,,,,,,,,,,,,,,,,,288.690744099993,1.0148434000002453,289.7032128999999,289.78626009999425,290.58613189999596,290.68597269999736,290.68597269999736,290.68597269999736,right,1,0.7493114999961108,,,,,,,,,,,,,,,,,,,,,,,,,,,,,,,,,,,,,005,001,2023-11-16_14h12.06.201,ETproject_Chi_2023.1.1,2023.1.1,60.050250050874325,
143,Week,星期六,星期五,,Vert,early,down,image/Chi_early.png,"[0, 0.4]","[0, -0.4]",1,incongruent,,,,,,,,,,,,,,0,39,39,36,,,,,,,,,,,,,,,,,,,,,,,,,,,,,,,,,,,,,,,,,,,,,,,,,,,,,,291.4727994999994,1.0105053999868687,292.4854966999992,292.5521473999979,293.35190429999784,293.45164189999923,293.45164189999923,293.45164189999923,down,1,1.1266122000088217,,,,,,,,,,,,,,,,,,,,,,,,,,,,,,,,,,,,,005,001,2023-11-16_14h12.06.201,ETproject_Chi_2023.1.1,2023.1.1,60.050250050874325,
112,Week,星期二,星期五,,Vert,early,up,image/Chi_early.png,"[0, 0.4]","[0, -0.4]",3,congruent,,,,,,,,,,,,,,0,40,40,24,,,,,,,,,,,,,,,,,,,,,,,,,,,,,,,,,,,,,,,,,,,,,,,,,,,,,,295.6054860000004,1.0150139999896055,296.61769329999515,296.7006102000014,297.5005048000021,297.60046319999674,297.60046319999674,297.60046319999674,up,1,0.7542889000033028,,,,,,,,,,,,,,,,,,,,,,,,,,,,,,,,,,,,,005,001,2023-11-16_14h12.06.201,ETproject_Chi_2023.1.1,2023.1.1,60.050250050874325,
29,Month,七月,八月,,Vert,early,up,image/Chi_early.png,"[0, 0.4]","[0, -0.4]",1,congruent,,,,,,,,,,,,,,0,41,41,2,,,,,,,,,,,,,,,,,,,,,,,,,,,,,,,,,,,,,,,,,,,,,,,,,,,,,,298.3887054999941,0.9992809999966994,299.39984430000186,299.48318519999157,300.2829369999963,300.3828932000033,300.3828932000033,300.3828932000033,up,1,0.9727081000019098,,,,,,,,,,,,,,,,,,,,,,,,,,,,,,,,,,,,,005,001,2023-11-16_14h12.06.201,ETproject_Chi_2023.1.1,2023.1.1,60.050250050874325,
112,Week,星期二,星期三 ,,Vert,early,up,image/Chi_early.png,"[0, 0.4]","[0, -0.4]",1,congruent,,,,,,,,,,,,,,0,42,42,31,,,,,,,,,,,,,,,,,,,,,,,,,,,,,,,,,,,,,,,,,,,,,,,,,,,,,,301.38641759999155,0.9991861000016797,302.39887889999954,302.4821627999918,303.2818316000048,303.3817907000048,303.3817907000048,303.3817907000048,up,1,0.9015748999954667,,,,,,,,,,,,,,,,,,,,,,,,,,,,,,,,,,,,,005,001,2023-11-16_14h12.06.201,ETproject_Chi_2023.1.1,2023.1.1,60.050250050874325,
97,Week,星期一,星期四,,Hori,early,left,image/Chi_early.png,"[-0.4, 0]","[0.4, 0]",3,congruent,,,,,,,,,,,,,,0,43,43,20,,,,,,,,,,,,,,,,,,,,,,,,,,,,,,,,,,,,,,,,,,,,,,,,,,,,,,304.3214391999936,1.0127634999953443,305.3313584999996,305.41451190000225,306.21412819999387,306.3142220000009,306.3142220000009,306.3142220000009,left,1,0.6803978000098141,,,,,,,,,,,,,,,,,,,,,,,,,,,,,,,,,,,,,005,001,2023-11-16_14h12.06.201,ETproject_Chi_2023.1.1,2023.1.1,60.050250050874325,
13,Month,四月,七月,,Hori,late,right,image/Chi_late.png,"[-0.4, 0]","[0.4, 0]",3,congruent,,,,,,,,,,,,,,0,44,44,41,,,,,,,,,,,,,,,,,,,,,,,,,,,,,,,,,,,,,,,,,,,,,,,,,,,,,,307.03067320000264,1.0126643999974476,308.0302779000049,308.11374929999874,308.913452599998,309.013352199996,309.013352199996,309.013352199996,right,1,0.9980994999932591,,,,,,,,,,,,,,,,,,,,,,,,,,,,,,,,,,,,,005,001,2023-11-16_14h12.06.201,ETproject_Chi_2023.1.1,2023.1.1,60.050250050874325,
58,Month,六月,二月,,Vert,late,up,image/Chi_late.png,"[0, 0.4]","[0, -0.4]",4,incongruent,,,,,,,,,,,,,,0,45,45,18,,,,,,,,,,,,,,,,,,,,,,,,,,,,,,,,,,,,,,,,,,,,,,,,,,,,,,310.0380446000054,1.0113841999991564,311.04592809999303,311.12923999999475,311.9289338999952,312.02889990000403,312.02889990000403,312.02889990000403,up,1,0.9413452000007965,,,,,,,,,,,,,,,,,,,,,,,,,,,,,,,,,,,,,005,001,2023-11-16_14h12.06.201,ETproject_Chi_2023.1.1,2023.1.1,60.050250050874325,
26,Month,六月,八月,,Vert,early,up,image/Chi_early.png,"[0, 0.4]","[0, -0.4]",2,congruent,,,,,,,,,,,,,,0,46,46,32,,,,,,,,,,,,,,,,,,,,,,,,,,,,,,,,,,,,,,,,,,,,,,,,,,,,,,313.00630900000397,0.9994003000028897,314.0115231999953,314.0951708999928,314.8945307999966,314.9947198000009,314.9947198000009,314.9947198000009,up,1,0.9927944999944884,,,,,,,,,,,,,,,,,,,,,,,,,,,,,,,,,,,,,005,001,2023-11-16_14h12.06.201,ETproject_Chi_2023.1.1,2023.1.1,60.050250050874325,
150,Week,星期六,星期五,,Vert,late,up,image/Chi_late.png,"[0, 0.4]","[0, -0.4]",1,incongruent,,,,,,,,,,,,,,0,47,47,23,,,,,,,,,,,,,,,,,,,,,,,,,,,,,,,,,,,,,,,,,,,,,,,,,,,,,,316.0175850999949,1.0157536000042455,317.02731259999564,317.1104764000047,317.9103672999918,318.01054719999956,318.01054719999956,318.01054719999956,up,1,1.3203982999984873,,,,,,,,,,,,,,,,,,,,,,,,,,,,,,,,,,,,,005,001,2023-11-16_14h12.06.201,ETproject_Chi_2023.1.1,2023.1.1,60.050250050874325,
75,Month,十月 ,九月 ,,Vert,early,down,image/Chi_early.png,"[0, 0.4]","[0, -0.4]",1,incongruent,,,,,,,,,,,,,,0,48,48,1,,,,,,,,,,,,,,,,,,,,,,,,,,,,,,,,,,,,,,,,,,,,,,,,,,,,,,319.3772004999919,1.0114891999983229,320.37632110000413,320.45962110000255,321.25940110000374,321.3592306999926,321.3592306999926,321.3592306999926,down,1,1.4675739999947837,,,,,,,,,,,,,,,,,,,,,,,,,,,,,,,,,,,,,005,001,2023-11-16_14h12.06.201,ETproject_Chi_2023.1.1,2023.1.1,60.050250050874325,
34,Month,六月,二月,,Hori,early,right,image/Chi_early.png,"[-0.4, 0]","[0.4, 0]",4,incongruent,,,,,,,,,,,,,,0,49,49,21,,,,,,,,,,,,,,,,,,,,,,,,,,,,,,,,,,,,,,,,,,,,,,,,,,,,,,322.8683724000002,1.0100438999943435,323.8751794999989,323.9583091999957,324.75812709999445,324.8579935000016,324.8579935000016,324.8579935000016,right,1,0.9848788999952376,,,,,,,,,,,,,,,,,,,,,,,,,,,,,,,,,,,,,005,001,2023-11-16_14h12.06.201,ETproject_Chi_2023.1.1,2023.1.1,60.050250050874325,
,,,,,,,,,,,,,,,,,,,,,,,,,,,,,,,,,,,,,,,,,,,,,,,,,,,,,,,,,,,,,,,,,,,,,,,,,,,,,,,,,,,,,,,,,,,,,,326.86391600000206,326.86391600000206,space,5.627040299994405,,,,,,,,,,,,,,,,,,,,,,,,,,,,,,,,,005,001,2023-11-16_14h12.06.201,ETproject_Chi_2023.1.1,2023.1.1,60.050250050874325,
,,,,,,,,,,,,,Spring 1.jpg,这是春天吗？,是,Left,Break_material/Image/Spring 1.jpg,,,,,,,,,,,,,0,0,0,0,,,,,,,,,,,,,,,,,,,,,,,,,,,,,,,,,,,,,,,,,,,,,,,,,,,,,,,,,,,,,,,,,332.59794759999204,336.5076529999933,336.6041320999939,338.5203563999967,338.5203563999967,338.5203563999967,338.5203563999967,left,0,0.6514673000056064,,,,,,,,,,,,,,,,,,,,,,,005,001,2023-11-16_14h12.06.201,ETproject_Chi_2023.1.1,2023.1.1,60.050250050874325,
,,,,,,,,,,,,,Spring 5.jpg,这是冬天吗？,否,Right,Break_material/Image/Spring 5.jpg,,,,,,,,,,,,,0,1,1,4,,,,,,,,,,,,,,,,,,,,,,,,,,,,,,,,,,,,,,,,,,,,,,,,,,,,,,,,,,,,,,,,,339.6946112000005,343.19003440000233,343.70191489999706,345.2013822000008,345.2013822000008,345.2013822000008,345.2013822000008,right,0,0.47399839998979587,,,,,,,,,,,,,,,,,,,,,,,005,001,2023-11-16_14h12.06.201,ETproject_Chi_2023.1.1,2023.1.1,60.050250050874325,
,,,,,,,,,,,,,Spring 2.jpg,这是冬天吗？,否,Right,Break_material/Image/Spring 2.jpg,,,,,,,,,,,,,0,2,2,1,,,,,,,,,,,,,,,,,,,,,,,,,,,,,,,,,,,,,,,,,,,,,,,,,,,,,,,,,,,,,,,,,345.93423460000486,349.6863469999953,349.9331569999922,351.6989389999944,351.6989389999944,351.6989389999944,351.6989389999944,right,0,0.568511400007992,,,,,,,,,,,,,,,,,,,,,,,005,001,2023-11-16_14h12.06.201,ETproject_Chi_2023.1.1,2023.1.1,60.050250050874325,
,,,,,,,,,,,,,Spring 4.jpg,这是秋天吗？,否,Right,Break_material/Image/Spring 4.jpg,,,,,,,,,,,,,0,3,3,3,,,,,,,,,,,,,,,,,,,,,,,,,,,,,,,,,,,,,,,,,,,,,,,,,,,,,,,,,,,,,,,,,352.5316934000002,356.28532789999736,356.53067629999714,358.2969291000045,358.2969291000045,358.2969291000045,358.2969291000045,right,0,0.3614384000102291,,,,,,,,,,,,,,,,,,,,,,,005,001,2023-11-16_14h12.06.201,ETproject_Chi_2023.1.1,2023.1.1,60.050250050874325,
,,,,,,,,,,,,,Spring 6.jpg,这是春天吗？,是,Left,Break_material/Image/Spring 6.jpg,,,,,,,,,,,,,0,4,4,5,,,,,,,,,,,,,,,,,,,,,,,,,,,,,,,,,,,,,,,,,,,,,,,,,,,,,,,,,,,,,,,,,359.3437259999919,362.66775169999164,363.3453426999913,364.67827930000203,364.67827930000203,364.67827930000203,364.67827930000203,right,0,0.9329931999964174,,,,,,,,,,,,,,,,,,,,,,,005,001,2023-11-16_14h12.06.201,ETproject_Chi_2023.1.1,2023.1.1,60.050250050874325,
,,,,,,,,,,,,,Spring 3.jpg,这是夏天吗？,否,Right,Break_material/Image/Spring 3.jpg,,,,,,,,,,,,,0,5,5,2,,,,,,,,,,,,,,,,,,,,,,,,,,,,,,,,,,,,,,,,,,,,,,,,,,,,,,,,,,,,,,,,,365.91235959999904,369.6140205999982,369.91022589999193,371.6259396999958,371.6259396999958,371.6259396999958,371.6259396999958,right,0,0.4817019000038272,,,,,,,,,,,,,,,,,,,,,,,005,001,2023-11-16_14h12.06.201,ETproject_Chi_2023.1.1,2023.1.1,60.050250050874325,
,,,,,,,,,,,,,,,,,,,,,,,,,,,,,,,,,,,,,,,,,,,,,,,,,,,,,,,,,,,,,,,,,,,,,,,,,,,,,,,,,,,,,,,,,,,,,,,,,,,,,,,,,,,,372.12603830000444,372.12603830000444,space,1.8528445999982068,,,,,,,,,,,,,,,,,,,005,001,2023-11-16_14h12.06.201,ETproject_Chi_2023.1.1,2023.1.1,60.050250050874325,
141,Week,星期六,星期三 ,,Vert,early,down,image/Chi_early.png,"[0, 0.4]","[0, -0.4]",3,incongruent,,,,,,,,,,,,,,,,,,,,,,0,0,0,29,,,,,,,,,,,,,,,,,,,,,,,,,,,,,,,,,,,,,,,,,,,,,,374.0226901999995,0.9995707000052789,375.0247851000022,375.10821219999343,375.9079039999924,376.00794369999494,376.00794369999494,376.00794369999494,down,1,1.2182900000043446,,,,,,,,,,,,,,,,,,,,,,,,,,,,,,,,,,,,,005,001,2023-11-16_14h12.06.201,ETproject_Chi_2023.1.1,2023.1.1,60.050250050874325,
2,Month,二月,五月,,Hori,early,left,image/Chi_early.png,"[-0.4, 0]","[0.4, 0]",3,congruent,,,,,,,,,,,,,,,,,,,,,,0,1,1,36,,,,,,,,,,,,,,,,,,,,,,,,,,,,,,,,,,,,,,,,,,,,,,377.2642493000021,1.0123449000093387,378.27375680000114,378.3572015999962,379.1568317999918,379.25677360000554,379.25677360000554,379.25677360000554,left,1,0.859095800013165,,,,,,,,,,,,,,,,,,,,,,,,,,,,,,,,,,,,,005,001,2023-11-16_14h12.06.201,ETproject_Chi_2023.1.1,2023.1.1,60.050250050874325,
16,Month,七月,十月 ,,Hori,late,right,image/Chi_late.png,"[-0.4, 0]","[0.4, 0]",3,congruent,,,,,,,,,,,,,,,,,,,,,,0,2,2,43,,,,,,,,,,,,,,,,,,,,,,,,,,,,,,,,,,,,,,,,,,,,,,380.1499834999995,1.0132218999933684,381.1560982999945,381.2397223000007,382.03932239999995,382.13926039999933,382.13926039999933,382.13926039999933,right,1,1.127052099996945,,,,,,,,,,,,,,,,,,,,,,,,,,,,,,,,,,,,,005,001,2023-11-16_14h12.06.201,ETproject_Chi_2023.1.1,2023.1.1,60.050250050874325,
123,Week,星期六,星期日,,Vert,late,down,image/Chi_late.png,"[0, 0.4]","[0, -0.4]",1,congruent,,,,,,,,,,,,,,,,,,,,,,0,3,3,31,,,,,,,,,,,,,,,,,,,,,,,,,,,,,,,,,,,,,,,,,,,,,,383.2987273000035,1.011746200005291,384.3050709999952,384.38854659999197,385.18820330000017,385.28829729999416,385.28829729999416,385.28829729999416,down,1,1.1865172999969218,,,,,,,,,,,,,,,,,,,,,,,,,,,,,,,,,,,,,005,001,2023-11-16_14h12.06.201,ETproject_Chi_2023.1.1,2023.1.1,60.050250050874325,
46,Month,八月,六月,,Hori,early,right,image/Chi_early.png,"[-0.4, 0]","[0.4, 0]",2,incongruent,,,,,,,,,,,,,,,,,,,,,,0,4,4,6,,,,,,,,,,,,,,,,,,,,,,,,,,,,,,,,,,,,,,,,,,,,,,387.5149881999969,0.9990252999996301,388.5208735999913,388.60383799999545,389.40371250000317,389.50350189999153,389.50350189999153,389.50350189999153,left,0,0.7315074000071036,,,,,,,,,,,,,,,,,,,,,,,,,,,,,,,,,,,,,005,001,2023-11-16_14h12.06.201,ETproject_Chi_2023.1.1,2023.1.1,60.050250050874325,
29,Month,五月,九月 ,,Vert,late,down,image/Chi_late.png,"[0, 0.4]","[0, -0.4]",4,congruent,,,,,,,,,,,,,,,,,,,,,,0,5,5,21,,,,,,,,,,,,,,,,,,,,,,,,,,,,,,,,,,,,,,,,,,,,,,390.2625143000041,1.0145788999943761,391.2696039000002,391.3528071000037,392.15267579999636,392.25263289999566,392.25263289999566,392.25263289999566,up,0,0.7906244000041625,,,,,,,,,,,,,,,,,,,,,,,,,,,,,,,,,,,,,005,001,2023-11-16_14h12.06.201,ETproject_Chi_2023.1.1,2023.1.1,60.050250050874325,
142,Week,星期日,星期四,,Vert,early,down,image/Chi_early.png,"[0, 0.4]","[0, -0.4]",3,incongruent,,,,,,,,,,,,,,,,,,,,,,0,6,6,35,,,,,,,,,,,,,,,,,,,,,,,,,,,,,,,,,,,,,,,,,,,,,,393.08023589999357,1.011837399986689,394.085496300002,394.1685449999932,394.96824239999114,395.0682550000056,395.0682550000056,395.0682550000056,down,1,1.0629762000025949,,,,,,,,,,,,,,,,,,,,,,,,,,,,,,,,,,,,,005,001,2023-11-16_14h12.06.201,ETproject_Chi_2023.1.1,2023.1.1,60.050250050874325,
134,Week,星期五,星期三 ,,Hori,late,left,image/Chi_late.png,"[-0.4, 0]","[0.4, 0]",2,incongruent,,,,,,,,,,,,,,,,,,,,,,0,7,7,47,,,,,,,,,,,,,,,,,,,,,,,,,,,,,,,,,,,,,,,,,,,,,,396.16468649999297,1.0125248999975156,397.16753269999754,397.25074360000144,398.0508353000041,398.15074179999647,398.15074179999647,398.15074179999647,left,1,0.9010585000069113,,,,,,,,,,,,,,,,,,,,,,,,,,,,,,,,,,,,,005,001,2023-11-16_14h12.06.201,ETproject_Chi_2023.1.1,2023.1.1,60.050250050874325,
16,Month,八月,十二月,,Hori,late,right,image/Chi_late.png,"[-0.4, 0]","[0.4, 0]",4,congruent,,,,,,,,,,,,,,,,,,,,,,0,8,8,27,,,,,,,,,,,,,,,,,,,,,,,,,,,,,,,,,,,,,,,,,,,,,,400.0896664000029,1.0153691000014078,401.0997786999942,401.1831009000016,401.9828097999998,402.08293360000243,402.08293360000243,402.08293360000243,right,1,0.6473712000006344,,,,,,,,,,,,,,,,,,,,,,,,,,,,,,,,,,,,,005,001,2023-11-16_14h12.06.201,ETproject_Chi_2023.1.1,2023.1.1,60.050250050874325,
21,Month,十月 ,十一月 ,,Hori,late,right,image/Chi_late.png,"[-0.4, 0]","[0.4, 0]",1,congruent,,,,,,,,,,,,,,,,,,,,,,0,9,9,5,,,,,,,,,,,,,,,,,,,,,,,,,,,,,,,,,,,,,,,,,,,,,,402.7550052000006,1.0153164000075776,403.76538260000234,403.84879360000195,404.648342600005,404.7484442999994,404.7484442999994,404.7484442999994,right,1,0.8227531000011368,,,,,,,,,,,,,,,,,,,,,,,,,,,,,,,,,,,,,005,001,2023-11-16_14h12.06.201,ETproject_Chi_2023.1.1,2023.1.1,60.050250050874325,
55,Month,四月,一月,,Vert,early,down,image/Chi_early.png,"[0, 0.4]","[0, -0.4]",3,incongruent,,,,,,,,,,,,,,,,,,,,,,0,10,10,22,,,,,,,,,,,,,,,,,,,,,,,,,,,,,,,,,,,,,,,,,,,,,,405.60939959999814,1.011394900007872,406.6144379000034,406.6977535000042,407.4975163999916,407.59770019999996,407.59770019999996,407.59770019999996,down,1,1.1261191999947187,,,,,,,,,,,,,,,,,,,,,,,,,,,,,,,,,,,,,005,001,2023-11-16_14h12.06.201,ETproject_Chi_2023.1.1,2023.1.1,60.050250050874325,
70,Month,十月 ,七月,,Vert,late,up,image/Chi_late.png,"[0, 0.4]","[0, -0.4]",3,incongruent,,,,,,,,,,,,,,,,,,,,,,0,11,11,19,,,,,,,,,,,,,,,,,,,,,,,,,,,,,,,,,,,,,,,,,,,,,,408.76076390000526,1.010609699995257,409.763388899999,409.84669089999807,410.646396199998,410.7464195999928,410.7464195999928,410.7464195999928,up,1,0.9045424000069033,,,,,,,,,,,,,,,,,,,,,,,,,,,,,,,,,,,,,005,001,2023-11-16_14h12.06.201,ETproject_Chi_2023.1.1,2023.1.1,60.050250050874325,
57,Month,三月,二月,,Hori,late,left,image/Chi_late.png,"[-0.4, 0]","[0.4, 0]",1,incongruent,,,,,,,,,,,,,,,,,,,,,,0,12,12,13,,,,,,,,,,,,,,,,,,,,,,,,,,,,,,,,,,,,,,,,,,,,,,411.68716689999565,1.0123414999980014,412.69584070000565,412.7790066000016,413.5788476000016,413.67880359999253,413.67880359999253,413.67880359999253,left,1,1.0763403000019025,,,,,,,,,,,,,,,,,,,,,,,,,,,,,,,,,,,,,005,001,2023-11-16_14h12.06.201,ETproject_Chi_2023.1.1,2023.1.1,60.050250050874325,
42,Month,九月 ,十月 ,,Vert,late,down,image/Chi_late.png,"[0, 0.4]","[0, -0.4]",1,congruent,,,,,,,,,,,,,,,,,,,,,,0,13,13,0,,,,,,,,,,,,,,,,,,,,,,,,,,,,,,,,,,,,,,,,,,,,,,415.7854585000023,1.0152915999933612,416.79446809999354,416.87780889999704,417.6775265000033,417.7774791999982,417.7774791999982,417.7774791999982,down,1,0.8728853999928106,,,,,,,,,,,,,,,,,,,,,,,,,,,,,,,,,,,,,005,001,2023-11-16_14h12.06.201,ETproject_Chi_2023.1.1,2023.1.1,60.050250050874325,
1,Month,一月,四月,,Hori,early,left,image/Chi_early.png,"[-0.4, 0]","[0.4, 0]",3,congruent,,,,,,,,,,,,,,,,,,,,,,0,14,14,34,,,,,,,,,,,,,,,,,,,,,,,,,,,,,,,,,,,,,,,,,,,,,,418.686973399992,1.0147615000023507,419.69350799999665,419.7766985999915,420.57660719999694,420.6766028999991,420.6766028999991,420.6766028999991,right,0,1.0705421000020579,,,,,,,,,,,,,,,,,,,,,,,,,,,,,,,,,,,,,005,001,2023-11-16_14h12.06.201,ETproject_Chi_2023.1.1,2023.1.1,60.050250050874325,
61,Month,十月 ,七月,,Vert,early,down,image/Chi_early.png,"[0, 0.4]","[0, -0.4]",3,incongruent,,,,,,,,,,,,,,,,,,,,,,0,15,15,16,,,,,,,,,,,,,,,,,,,,,,,,,,,,,,,,,,,,,,,,,,,,,,421.78626700000314,1.0111745000031078,422.79248299999745,422.8757016000018,423.6755353000044,423.77548329999263,423.77548329999263,423.77548329999263,down,1,1.4028909000044223,,,,,,,,,,,,,,,,,,,,,,,,,,,,,,,,,,,,,005,001,2023-11-16_14h12.06.201,ETproject_Chi_2023.1.1,2023.1.1,60.050250050874325,
34,Month,四月,六月,,Vert,late,down,image/Chi_late.png,"[0, 0.4]","[0, -0.4]",2,congruent,,,,,,,,,,,,,,,,,,,,,,0,16,16,38,,,,,,,,,,,,,,,,,,,,,,,,,,,,,,,,,,,,,,,,,,,,,,425.21616789999825,0.99920619999466,426.2246012999967,426.3080183999991,427.1077473000041,427.20771180000156,427.20771180000156,427.20771180000156,down,1,0.867765299990424,,,,,,,,,,,,,,,,,,,,,,,,,,,,,,,,,,,,,005,001,2023-11-16_14h12.06.201,ETproject_Chi_2023.1.1,2023.1.1,60.050250050874325,
102,Week,星期六,星期日,,Hori,early,left,image/Chi_early.png,"[-0.4, 0]","[0.4, 0]",1,congruent,,,,,,,,,,,,,,,,,,,,,,0,17,17,15,,,,,,,,,,,,,,,,,,,,,,,,,,,,,,,,,,,,,,,,,,,,,,428.1167692000017,1.014378600011696,429.1236959999951,429.2070442999975,430.0067504000035,430.10688179999124,430.10688179999124,430.10688179999124,left,1,0.9919546000019182,,,,,,,,,,,,,,,,,,,,,,,,,,,,,,,,,,,,,005,001,2023-11-16_14h12.06.201,ETproject_Chi_2023.1.1,2023.1.1,60.050250050874325,
82,Month,六月,五月,,Vert,late,up,image/Chi_late.png,"[0, 0.4]","[0, -0.4]",1,incongruent,,,,,,,,,,,,,,,,,,,,,,0,18,18,33,,,,,,,,,,,,,,,,,,,,,,,,,,,,,,,,,,,,,,,,,,,,,,431.13486760000524,1.0115205000038259,432.1394780999981,432.22258030000376,433.02269699999306,433.12244170000486,433.12244170000486,433.12244170000486,up,1,0.7848211000091396,,,,,,,,,,,,,,,,,,,,,,,,,,,,,,,,,,,,,005,001,2023-11-16_14h12.06.201,ETproject_Chi_2023.1.1,2023.1.1,60.050250050874325,
126,Week,星期四,星期二,,Hori,early,right,image/Chi_early.png,"[-0.4, 0]","[0.4, 0]",2,incongruent,,,,,,,,,,,,,,,,,,,,,,0,19,19,24,,,,,,,,,,,,,,,,,,,,,,,,,,,,,,,,,,,,,,,,,,,,,,433.9503337999922,1.0107557000010274,434.95531140000094,435.0384650000051,435.83808089999366,435.93813070000033,435.93813070000033,435.93813070000033,right,1,0.8729068000102416,,,,,,,,,,,,,,,,,,,,,,,,,,,,,,,,,,,,,005,001,2023-11-16_14h12.06.201,ETproject_Chi_2023.1.1,2023.1.1,60.050250050874325,
11,Month,十一月 ,十二月,,Hori,early,left,image/Chi_early.png,"[-0.4, 0]","[0.4, 0]",1,congruent,,,,,,,,,,,,,,,,,,,,,,0,20,20,28,,,,,,,,,,,,,,,,,,,,,,,,,,,,,,,,,,,,,,,,,,,,,,436.8498471999919,1.011134199987282,437.8540254999971,437.9374252999987,438.7372791999951,438.8372607000056,438.8372607000056,438.8372607000056,left,1,1.5410832000052324,,,,,,,,,,,,,,,,,,,,,,,,,,,,,,,,,,,,,005,001,2023-11-16_14h12.06.201,ETproject_Chi_2023.1.1,2023.1.1,60.050250050874325,
4,Month,四月,六月,,Hori,early,left,image/Chi_early.png,"[-0.4, 0]","[0.4, 0]",2,congruent,,,,,,,,,,,,,,,,,,,,,,0,21,21,20,,,,,,,,,,,,,,,,,,,,,,,,,,,,,,,,,,,,,,,,,,,,,,440.4128820000042,1.0107561999902828,441.4197184999939,441.50311219999276,442.3025990000024,442.40269190000254,442.40269190000254,442.40269190000254,left,1,0.8166055000037886,,,,,,,,,,,,,,,,,,,,,,,,,,,,,,,,,,,,,005,001,2023-11-16_14h12.06.201,ETproject_Chi_2023.1.1,2023.1.1,60.050250050874325,
7,Month,七月,十一月 ,,Hori,early,left,image/Chi_early.png,"[-0.4, 0]","[0.4, 0]",4,congruent,,,,,,,,,,,,,,,,,,,,,,0,22,22,49,,,,,,,,,,,,,,,,,,,,,,,,,,,,,,,,,,,,,,,,,,,,,,443.2436330000055,1.0114716999960365,444.2522011999972,444.33535209999536,445.13514790000045,445.23507389999577,445.23507389999577,445.23507389999577,left,1,0.6962528000003658,,,,,,,,,,,,,,,,,,,,,,,,,,,,,,,,,,,,,005,001,2023-11-16_14h12.06.201,ETproject_Chi_2023.1.1,2023.1.1,60.050250050874325,
108,Week,星期五,星期六,,Hori,late,right,image/Chi_late.png,"[-0.4, 0]","[0.4, 0]",1,congruent,,,,,,,,,,,,,,,,,,,,,,0,23,23,1,,,,,,,,,,,,,,,,,,,,,,,,,,,,,,,,,,,,,,,,,,,,,,445.96772250000504,1.0102552999887848,446.96780070000386,447.05113710000296,447.8509617999953,447.95087830000557,447.95087830000557,447.95087830000557,right,1,0.7565001000039047,,,,,,,,,,,,,,,,,,,,,,,,,,,,,,,,,,,,,005,001,2023-11-16_14h12.06.201,ETproject_Chi_2023.1.1,2023.1.1,60.050250050874325,
59,Month,五月,四月,,Hori,late,left,image/Chi_late.png,"[-0.4, 0]","[0.4, 0]",1,incongruent,,,,,,,,,,,,,,,,,,,,,,0,24,24,12,,,,,,,,,,,,,,,,,,,,,,,,,,,,,,,,,,,,,,,,,,,,,,448.7438719000056,1.010842200004845,449.7501886999962,449.8337001000036,450.6332529999927,450.7333406999969,450.7333406999969,450.7333406999969,left,1,1.438310099998489,,,,,,,,,,,,,,,,,,,,,,,,,,,,,,,,,,,,,005,001,2023-11-16_14h12.06.201,ETproject_Chi_2023.1.1,2023.1.1,60.050250050874325,
126,Week,星期五,星期二,,Hori,early,right,image/Chi_early.png,"[-0.4, 0]","[0.4, 0]",3,incongruent,,,,,,,,,,,,,,,,,,,,,,0,25,25,17,,,,,,,,,,,,,,,,,,,,,,,,,,,,,,,,,,,,,,,,,,,,,,452.21229609999864,1.0140186000062386,453.21584269999585,453.299059500001,454.0989069999923,454.1988663999946,454.1988663999946,454.1988663999946,right,1,0.9074460999981966,,,,,,,,,,,,,,,,,,,,,,,,,,,,,,,,,,,,,005,001,2023-11-16_14h12.06.201,ETproject_Chi_2023.1.1,2023.1.1,60.050250050874325,
98,Week,星期二,星期五,,Hori,early,left,image/Chi_early.png,"[-0.4, 0]","[0.4, 0]",3,congruent,,,,,,,,,,,,,,,,,,,,,,0,26,26,39,,,,,,,,,,,,,,,,,,,,,,,,,,,,,,,,,,,,,,,,,,,,,,455.1372474999953,1.0144770999904722,456.1481628000038,456.2315544000012,457.0312475999963,457.1312231000047,457.1312231000047,457.1312231000047,left,1,0.7764680000109365,,,,,,,,,,,,,,,,,,,,,,,,,,,,,,,,,,,,,005,001,2023-11-16_14h12.06.201,ETproject_Chi_2023.1.1,2023.1.1,60.050250050874325,
18,Month,九月 ,十二月,,Hori,late,right,image/Chi_late.png,"[-0.4, 0]","[0.4, 0]",3,congruent,,,,,,,,,,,,,,,,,,,,,,0,27,27,9,,,,,,,,,,,,,,,,,,,,,,,,,,,,,,,,,,,,,,,,,,,,,,457.9438636999985,1.010569600010058,458.94717949999904,459.0305672999966,459.83040740000433,459.93044749999535,459.93044749999535,459.93044749999535,right,1,0.5938348000054248,,,,,,,,,,,,,,,,,,,,,,,,,,,,,,,,,,,,,005,001,2023-11-16_14h12.06.201,ETproject_Chi_2023.1.1,2023.1.1,60.050250050874325,
111,Week,星期一,星期三 ,,Vert,early,up,image/Chi_early.png,"[0, 0.4]","[0, -0.4]",2,congruent,,,,,,,,,,,,,,,,,,,,,,0,28,28,8,,,,,,,,,,,,,,,,,,,,,,,,,,,,,,,,,,,,,,,,,,,,,,461.5544238000002,1.015497399988817,462.5627697000018,462.6461410000047,463.4458532999997,463.54580839999835,463.54580839999835,463.54580839999835,up,1,0.7783283000026131,,,,,,,,,,,,,,,,,,,,,,,,,,,,,,,,,,,,,005,001,2023-11-16_14h12.06.201,ETproject_Chi_2023.1.1,2023.1.1,60.050250050874325,
6,Month,六月,九月 ,,Hori,early,left,image/Chi_early.png,"[-0.4, 0]","[0.4, 0]",3,congruent,,,,,,,,,,,,,,,,,,,,,,0,29,29,25,,,,,,,,,,,,,,,,,,,,,,,,,,,,,,,,,,,,,,,,,,,,,,464.3544589999947,1.0105982999957632,465.3617224000045,465.44512889999896,466.24469389999285,466.3450482000044,466.3450482000044,466.3450482000044,left,1,1.3293815000070026,,,,,,,,,,,,,,,,,,,,,,,,,,,,,,,,,,,,,005,001,2023-11-16_14h12.06.201,ETproject_Chi_2023.1.1,2023.1.1,60.050250050874325,
99,Week,星期三 ,星期五,,Hori,early,left,image/Chi_early.png,"[-0.4, 0]","[0.4, 0]",2,congruent,,,,,,,,,,,,,,,,,,,,,,0,30,30,3,,,,,,,,,,,,,,,,,,,,,,,,,,,,,,,,,,,,,,,,,,,,,,467.7069418000028,1.0118706000066595,468.7107074999949,468.7939419000031,469.59382149999146,469.69382689999475,469.69382689999475,469.69382689999475,left,1,0.7562459000037052,,,,,,,,,,,,,,,,,,,,,,,,,,,,,,,,,,,,,005,001,2023-11-16_14h12.06.201,ETproject_Chi_2023.1.1,2023.1.1,60.050250050874325,
21,Month,五月,九月 ,,Vert,early,up,image/Chi_early.png,"[0, 0.4]","[0, -0.4]",4,congruent,,,,,,,,,,,,,,,,,,,,,,0,31,31,46,,,,,,,,,,,,,,,,,,,,,,,,,,,,,,,,,,,,,,,,,,,,,,470.48671670000476,1.0099409999966156,471.49298169999383,471.576298400003,472.37618099999963,472.47593939999933,472.47593939999933,472.47593939999933,up,1,1.7119260000035865,,,,,,,,,,,,,,,,,,,,,,,,,,,,,,,,,,,,,005,001,2023-11-16_14h12.06.201,ETproject_Chi_2023.1.1,2023.1.1,60.050250050874325,
43,Month,十月 ,七月,,Hori,early,right,image/Chi_early.png,"[-0.4, 0]","[0.4, 0]",3,incongruent,,,,,,,,,,,,,,,,,,,,,,0,32,32,7,,,,,,,,,,,,,,,,,,,,,,,,,,,,,,,,,,,,,,,,,,,,,,474.2148775999958,1.0134296000032919,475.2252303999994,475.30859220000275,476.10828149999725,476.20812709999154,476.20812709999154,476.20812709999154,right,1,0.8912472000083653,,,,,,,,,,,,,,,,,,,,,,,,,,,,,,,,,,,,,005,001,2023-11-16_14h12.06.201,ETproject_Chi_2023.1.1,2023.1.1,60.050250050874325,
25,Month,一月,五月,,Vert,late,down,image/Chi_late.png,"[0, 0.4]","[0, -0.4]",4,congruent,,,,,,,,,,,,,,,,,,,,,,0,33,33,23,,,,,,,,,,,,,,,,,,,,,,,,,,,,,,,,,,,,,,,,,,,,,,477.1370261999982,1.0138333999930182,478.1408270999964,478.2243518000032,479.0241490000044,479.1240398999944,479.1240398999944,479.1240398999944,down,1,0.8628314000088722,,,,,,,,,,,,,,,,,,,,,,,,,,,,,,,,,,,,,005,001,2023-11-16_14h12.06.201,ETproject_Chi_2023.1.1,2023.1.1,60.050250050874325,
23,Month,一月,二月 ,,Vert,early,up,image/Chi_early.png,"[0, 0.4]","[0, -0.4]",1,congruent,,,,,,,,,,,,,,,,,,,,,,0,34,34,30,,,,,,,,,,,,,,,,,,,,,,,,,,,,,,,,,,,,,,,,,,,,,,480.0169353999954,1.012385500012897,481.02341409999644,481.1065546000027,481.9063582999952,482.0062779,482.0062779,482.0062779,up,1,0.6524665000033565,,,,,,,,,,,,,,,,,,,,,,,,,,,,,,,,,,,,,005,001,2023-11-16_14h12.06.201,ETproject_Chi_2023.1.1,2023.1.1,60.050250050874325,
84,Month,八月,七月,,Vert,late,up,image/Chi_late.png,"[0, 0.4]","[0, -0.4]",1,incongruent,,,,,,,,,,,,,,,,,,,,,,0,35,35,18,,,,,,,,,,,,,,,,,,,,,,,,,,,,,,,,,,,,,,,,,,,,,,482.6966645999928,0.9992333999980474,483.7056082000054,483.78915450000204,484.58860849999473,484.68878779999795,484.68878779999795,484.68878779999795,down,0,0.7786707000050228,,,,,,,,,,,,,,,,,,,,,,,,,,,,,,,,,,,,,005,001,2023-11-16_14h12.06.201,ETproject_Chi_2023.1.1,2023.1.1,60.050250050874325,
13,Month,二月,三月,,Hori,late,right,image/Chi_late.png,"[-0.4, 0]","[0.4, 0]",1,congruent,,,,,,,,,,,,,,,,,,,,,,0,36,36,42,,,,,,,,,,,,,,,,,,,,,,,,,,,,,,,,,,,,,,,,,,,,,,485.49316230000113,0.9990742999943905,486.5047487999982,486.58823049999774,487.38787009999214,487.4877131999965,487.4877131999965,487.4877131999965,right,1,0.6427706999966176,,,,,,,,,,,,,,,,,,,,,,,,,,,,,,,,,,,,,005,001,2023-11-16_14h12.06.201,ETproject_Chi_2023.1.1,2023.1.1,60.050250050874325,
48,Month,十月 ,八月,,Hori,early,right,image/Chi_early.png,"[-0.4, 0]","[0.4, 0]",2,incongruent,,,,,,,,,,,,,,,,,,,,,,0,37,37,32,,,,,,,,,,,,,,,,,,,,,,,,,,,,,,,,,,,,,,,,,,,,,,488.1663084000029,1.011445400014054,489.17057279999426,489.25396279999404,490.05395000000135,490.15373000000545,490.15373000000545,490.15373000000545,right,1,0.8818663999991259,,,,,,,,,,,,,,,,,,,,,,,,,,,,,,,,,,,,,005,001,2023-11-16_14h12.06.201,ETproject_Chi_2023.1.1,2023.1.1,60.050250050874325,
114,Week,星期四,星期五,,Vert,early,up,image/Chi_early.png,"[0, 0.4]","[0, -0.4]",1,congruent,,,,,,,,,,,,,,,,,,,,,,0,38,38,10,,,,,,,,,,,,,,,,,,,,,,,,,,,,,,,,,,,,,,,,,,,,,,491.06478620000416,1.011029100001906,492.06952039999305,492.15290669999376,492.9528103000048,493.0528028999979,493.0528028999979,493.0528028999979,up,1,0.8614338000043062,,,,,,,,,,,,,,,,,,,,,,,,,,,,,,,,,,,,,005,001,2023-11-16_14h12.06.201,ETproject_Chi_2023.1.1,2023.1.1,60.050250050874325,
53,Month,五月,三月,,Hori,late,left,image/Chi_late.png,"[-0.4, 0]","[0.4, 0]",2,incongruent,,,,,,,,,,,,,,,,,,,,,,0,39,39,2,,,,,,,,,,,,,,,,,,,,,,,,,,,,,,,,,,,,,,,,,,,,,,493.94723829999566,1.0109207000059541,494.95206339999277,495.0354537999956,495.8351055999956,495.93513379999786,495.93513379999786,495.93513379999786,left,1,0.9956115999957547,,,,,,,,,,,,,,,,,,,,,,,,,,,,,,,,,,,,,005,001,2023-11-16_14h12.06.201,ETproject_Chi_2023.1.1,2023.1.1,60.050250050874325,
72,Month,四月,二月,,Vert,late,up,image/Chi_late.png,"[0, 0.4]","[0, -0.4]",2,incongruent,,,,,,,,,,,,,,,,,,,,,,0,40,40,41,,,,,,,,,,,,,,,,,,,,,,,,,,,,,,,,,,,,,,,,,,,,,,497.9579233999975,1.0153087000071537,498.96732709999196,499.05072729999665,499.8503684000025,499.9504355999961,499.9504355999961,499.9504355999961,up,1,1.0444278999930248,,,,,,,,,,,,,,,,,,,,,,,,,,,,,,,,,,,,,005,001,2023-11-16_14h12.06.201,ETproject_Chi_2023.1.1,2023.1.1,60.050250050874325,
68,Month,十月 ,八月,,Vert,early,down,image/Chi_early.png,"[0, 0.4]","[0, -0.4]",2,incongruent,,,,,,,,,,,,,,,,,,,,,,0,41,41,48,,,,,,,,,,,,,,,,,,,,,,,,,,,,,,,,,,,,,,,,,,,,,,501.0291513999982,1.013115599998855,502.0330322999944,502.1163009000011,502.9161732999928,503.016188900001,503.016188900001,503.016188900001,down,1,0.8995120000035968,,,,,,,,,,,,,,,,,,,,,,,,,,,,,,,,,,,,,005,001,2023-11-16_14h12.06.201,ETproject_Chi_2023.1.1,2023.1.1,60.050250050874325,
39,Month,九月 ,十一月 ,,Vert,late,down,image/Chi_late.png,"[0, 0.4]","[0, -0.4]",2,congruent,,,,,,,,,,,,,,,,,,,,,,0,42,42,14,,,,,,,,,,,,,,,,,,,,,,,,,,,,,,,,,,,,,,,,,,,,,,503.9447649999929,1.0108215999935055,504.94871769999736,505.032131999993,505.8317706999951,505.93188970000483,505.93188970000483,505.93188970000483,down,1,0.7827042000135407,,,,,,,,,,,,,,,,,,,,,,,,,,,,,,,,,,,,,005,001,2023-11-16_14h12.06.201,ETproject_Chi_2023.1.1,2023.1.1,60.050250050874325,
65,Month,七月,五月,,Vert,early,down,image/Chi_early.png,"[0, 0.4]","[0, -0.4]",2,incongruent,,,,,,,,,,,,,,,,,,,,,,0,43,43,11,,,,,,,,,,,,,,,,,,,,,,,,,,,,,,,,,,,,,,,,,,,,,,506.7427325000026,1.012172599992482,507.7476503999933,507.8310694999964,508.630974899992,508.7308788999944,508.7308788999944,508.7308788999944,down,1,0.8315168999979505,,,,,,,,,,,,,,,,,,,,,,,,,,,,,,,,,,,,,005,001,2023-11-16_14h12.06.201,ETproject_Chi_2023.1.1,2023.1.1,60.050250050874325,
10,Month,二月,六月,,Hori,late,right,image/Chi_late.png,"[-0.4, 0]","[0.4, 0]",4,congruent,,,,,,,,,,,,,,,,,,,,,,0,44,44,37,,,,,,,,,,,,,,,,,,,,,,,,,,,,,,,,,,,,,,,,,,,,,,509.5880518000049,1.0157042000064394,510.596933599998,510.6804565000057,511.4800571999949,511.58003339999414,511.58003339999414,511.58003339999414,right,1,1.0794083000073442,,,,,,,,,,,,,,,,,,,,,,,,,,,,,,,,,,,,,005,001,2023-11-16_14h12.06.201,ETproject_Chi_2023.1.1,2023.1.1,60.050250050874325,
60,Month,十二月,十月 ,,Hori,late,left,image/Chi_late.png,"[-0.4, 0]","[0.4, 0]",2,incongruent,,,,,,,,,,,,,,,,,,,,,,0,45,45,45,,,,,,,,,,,,,,,,,,,,,,,,,,,,,,,,,,,,,,,,,,,,,,512.6895191999938,1.0104625999956625,513.6958259999956,513.7794052999961,514.5789110000042,514.6790594000049,514.6790594000049,514.6790594000049,left,1,0.8923399000050267,,,,,,,,,,,,,,,,,,,,,,,,,,,,,,,,,,,,,005,001,2023-11-16_14h12.06.201,ETproject_Chi_2023.1.1,2023.1.1,60.050250050874325,
14,Month,四月,六月,,Hori,late,right,image/Chi_late.png,"[-0.4, 0]","[0.4, 0]",2,congruent,,,,,,,,,,,,,,,,,,,,,,0,46,46,26,,,,,,,,,,,,,,,,,,,,,,,,,,,,,,,,,,,,,,,,,,,,,,515.6002237999928,1.0151124999974854,516.6115521000029,516.6947980999976,517.4946727999923,517.5946546999912,517.5946546999912,517.5946546999912,right,1,1.352450200007297,,,,,,,,,,,,,,,,,,,,,,,,,,,,,,,,,,,,,005,001,2023-11-16_14h12.06.201,ETproject_Chi_2023.1.1,2023.1.1,60.050250050874325,
26,Month,八月,十一月 ,,Vert,early,up,image/Chi_early.png,"[0, 0.4]","[0, -0.4]",3,congruent,,,,,,,,,,,,,,,,,,,,,,0,47,47,44,,,,,,,,,,,,,,,,,,,,,,,,,,,,,,,,,,,,,,,,,,,,,,518.9847857999994,1.0155062000121688,519.9938756000047,520.0769689000008,520.8767940999969,520.9767282999965,520.9767282999965,520.9767282999965,up,1,1.0255589000007603,,,,,,,,,,,,,,,,,,,,,,,,,,,,,,,,,,,,,005,001,2023-11-16_14h12.06.201,ETproject_Chi_2023.1.1,2023.1.1,60.050250050874325,
57,Month,六月,三月,,Vert,early,down,image/Chi_early.png,"[0, 0.4]","[0, -0.4]",3,incongruent,,,,,,,,,,,,,,,,,,,,,,0,48,48,4,,,,,,,,,,,,,,,,,,,,,,,,,,,,,,,,,,,,,,,,,,,,,,522.0373093999951,1.0104781999980332,523.0428318999911,523.1260145999986,523.9257133999927,524.0258880000038,524.0258880000038,524.0258880000038,up,0,1.9299354000104358,,,,,,,,,,,,,,,,,,,,,,,,,,,,,,,,,,,,,005,001,2023-11-16_14h12.06.201,ETproject_Chi_2023.1.1,2023.1.1,60.050250050874325,
39,Month,十一月 ,七月,,Hori,early,right,image/Chi_early.png,"[-0.4, 0]","[0.4, 0]",4,incongruent,,,,,,,,,,,,,,,,,,,,,,0,49,49,40,,,,,,,,,,,,,,,,,,,,,,,,,,,,,,,,,,,,,,,,,,,,,,525.9835332999937,1.011799300002167,526.991443299994,527.0749125000002,527.8746148999926,527.9745809000015,527.9745809000015,527.9745809000015,right,1,0.7972366000030888,,,,,,,,,,,,,,,,,,,,,,,,,,,,,,,,,,,,,005,001,2023-11-16_14h12.06.201,ETproject_Chi_2023.1.1,2023.1.1,60.050250050874325,
,,,,,,,,,,,,,,,,,,,,,,,,,,,,,,,,,,,,,,,,,,,,,,,,,,,,,,,,,,,,,,,,,,,,,,,,,,,,,,,,,,,,,,,,,,,,,,,,,,,,,,,,,,,,,,,,529.7813275999943,529.7813275999943,space,2.077122300004703,,,,,,,,,,,,,,,005,001,2023-11-16_14h12.06.201,ETproject_Chi_2023.1.1,2023.1.1,60.050250050874325,
,,,,,,,,,,,,,Spring 3.jpg,这是夏天吗？,否,Right,Break_material/Image/Spring 3.jpg,,,,,,,,,,,,,,,,,,,,,0,0,0,2,,,,,,,,,,,,,,,,,,,,,,,,,,,,,,,,,,,,,,,,,,,,,,,,,,,,,,,,,531.9585965000006,535.8755117999972,535.9552239000041,537.8878442999994,537.8878442999994,537.8878442999994,537.8878442999994,right,0,0.7225984000106109,,,,,,,,,,,,,,,,,,,,,,,005,001,2023-11-16_14h12.06.201,ETproject_Chi_2023.1.1,2023.1.1,60.050250050874325,
,,,,,,,,,,,,,Spring 2.jpg,这是冬天吗？,否,Right,Break_material/Image/Spring 2.jpg,,,,,,,,,,,,,,,,,,,,,0,1,1,1,,,,,,,,,,,,,,,,,,,,,,,,,,,,,,,,,,,,,,,,,,,,,,,,,,,,,,,,,538.7044161999947,542.6229276999948,542.7029286000034,544.6358143999969,544.6358143999969,544.6358143999969,544.6358143999969,right,0,0.4312586000014562,,,,,,,,,,,,,,,,,,,,,,,005,001,2023-11-16_14h12.06.201,ETproject_Chi_2023.1.1,2023.1.1,60.050250050874325,
,,,,,,,,,,,,,Spring 4.jpg,这是秋天吗？,否,Right,Break_material/Image/Spring 4.jpg,,,,,,,,,,,,,,,,,,,,,0,2,2,3,,,,,,,,,,,,,,,,,,,,,,,,,,,,,,,,,,,,,,,,,,,,,,,,,,,,,,,,,545.2906944999995,549.0719237000012,549.3007101999974,551.083507599993,551.083507599993,551.083507599993,551.083507599993,right,0,0.5832817000045907,,,,,,,,,,,,,,,,,,,,,,,005,001,2023-11-16_14h12.06.201,ETproject_Chi_2023.1.1,2023.1.1,60.050250050874325,
,,,,,,,,,,,,,Spring 5.jpg,这是冬天吗？,否,Right,Break_material/Image/Spring 5.jpg,,,,,,,,,,,,,,,,,,,,,0,3,3,4,,,,,,,,,,,,,,,,,,,,,,,,,,,,,,,,,,,,,,,,,,,,,,,,,,,,,,,,,552.1709088999924,555.6699638999999,556.1651867000037,557.6814051999972,557.6814051999972,557.6814051999972,557.6814051999972,right,0,0.6171071999997366,,,,,,,,,,,,,,,,,,,,,,,005,001,2023-11-16_14h12.06.201,ETproject_Chi_2023.1.1,2023.1.1,60.050250050874325,
,,,,,,,,,,,,,Spring 1.jpg,这是春天吗？,是,Left,Break_material/Image/Spring 1.jpg,,,,,,,,,,,,,,,,,,,,,0,4,4,0,,,,,,,,,,,,,,,,,,,,,,,,,,,,,,,,,,,,,,,,,,,,,,,,,,,,,,,,,558.5501692999969,562.3162752999924,562.5464422999939,564.3292628999916,564.3292628999916,564.3292628999916,564.3292628999916,left,0,0.6900858000153676,,,,,,,,,,,,,,,,,,,,,,,005,001,2023-11-16_14h12.06.201,ETproject_Chi_2023.1.1,2023.1.1,60.050250050874325,
,,,,,,,,,,,,,,,,,,,,,,,,,,,,,,,,,,,,,,,,,,,,,,,,,,,,,,,,,,,,,,,,,,,,,,,,,,,,,,,,,,,,,,,,,,,,,,,,,,,,,,,,,,,,,,,,,,,,565.0457576000044,565.0457576000044,space,1.7012689000112005,,,,,,,,,,,005,001,2023-11-16_14h12.06.201,ETproject_Chi_2023.1.1,2023.1.1,60.050250050874325,
51,Month,七月,三月,,Vert,early,down,image/Chi_early.png,"[0, 0.4]","[0, -0.4]",4,incongruent,,,,,,,,,,,,,,,,,,,,,,,,,,,,,,0,0,0,12,,,,,,,,,,,,,,,,,,,,,,,,,,,,,,,,,,,,,,566.7927968000004,1.000125400008983,567.7946349999984,567.8782323999912,568.6776184000046,568.7776913999987,568.7776913999987,568.7776913999987,down,1,0.9137538000068162,,,,,,,,,,,,,,,,,,,,,,,,,,,,,,,,,,,,,005,001,2023-11-16_14h12.06.201,ETproject_Chi_2023.1.1,2023.1.1,60.050250050874325,
52,Month,八月,四月,,Vert,early,down,image/Chi_early.png,"[0, 0.4]","[0, -0.4]",4,incongruent,,,,,,,,,,,,,,,,,,,,,,,,,,,,,,0,1,1,31,,,,,,,,,,,,,,,,,,,,,,,,,,,,,,,,,,,,,,569.7228478000034,1.0105554000037955,570.7270950999955,570.8104999999923,571.6102315000026,571.7101149999944,571.7101149999944,571.7101149999944,down,1,0.8603152000141563,,,,,,,,,,,,,,,,,,,,,,,,,,,,,,,,,,,,,005,001,2023-11-16_14h12.06.201,ETproject_Chi_2023.1.1,2023.1.1,60.050250050874325,
105,Week,星期二,星期五,,Hori,late,right,image/Chi_late.png,"[-0.4, 0]","[0.4, 0]",3,congruent,,,,,,,,,,,,,,,,,,,,,,,,,,,,,,0,2,2,42,,,,,,,,,,,,,,,,,,,,,,,,,,,,,,,,,,,,,,572.6065319000045,1.0114580999943428,573.6094751999917,573.6927271000022,574.4925655999978,574.592511099996,574.592511099996,574.592511099996,right,1,0.9066054000140866,,,,,,,,,,,,,,,,,,,,,,,,,,,,,,,,,,,,,005,001,2023-11-16_14h12.06.201,ETproject_Chi_2023.1.1,2023.1.1,60.050250050874325,
128,Week,星期日,星期四,,Hori,early,right,image/Chi_early.png,"[-0.4, 0]","[0.4, 0]",3,incongruent,,,,,,,,,,,,,,,,,,,,,,,,,,,,,,0,3,3,35,,,,,,,,,,,,,,,,,,,,,,,,,,,,,,,,,,,,,,575.5365816999984,1.0127051000017673,576.5419495999959,576.6250411999936,577.4247944999952,577.5247716000013,577.5247716000013,577.5247716000013,right,1,0.9815773000009358,,,,,,,,,,,,,,,,,,,,,,,,,,,,,,,,,,,,,005,001,2023-11-16_14h12.06.201,ETproject_Chi_2023.1.1,2023.1.1,60.050250050874325,
30,Month,三月,六月,,Vert,late,down,image/Chi_late.png,"[0, 0.4]","[0, -0.4]",3,congruent,,,,,,,,,,,,,,,,,,,,,,,,,,,,,,0,4,4,14,,,,,,,,,,,,,,,,,,,,,,,,,,,,,,,,,,,,,,578.5357236999989,1.0115874000039184,579.5408593000029,579.6241007999924,580.4239202000026,580.5242097000009,580.5242097000009,580.5242097000009,down,1,4.478603700001258,,,,,,,,,,,,,,,,,,,,,,,,,,,,,,,,,,,,,005,001,2023-11-16_14h12.06.201,ETproject_Chi_2023.1.1,2023.1.1,60.050250050874325,
58,Month,十月 ,八月,,Hori,late,left,image/Chi_late.png,"[-0.4, 0]","[0.4, 0]",2,incongruent,,,,,,,,,,,,,,,,,,,,,,,,,,,,,,0,5,5,26,,,,,,,,,,,,,,,,,,,,,,,,,,,,,,,,,,,,,,585.0302101999987,1.0126847999927122,586.038718900003,586.1219507999922,586.9217487999995,587.0216362999927,587.0216362999927,587.0216362999927,left,1,1.077663100004429,,,,,,,,,,,,,,,,,,,,,,,,,,,,,,,,,,,,,005,001,2023-11-16_14h12.06.201,ETproject_Chi_2023.1.1,2023.1.1,60.050250050874325,
46,Month,三月,二月,,Hori,early,right,image/Chi_early.png,"[-0.4, 0]","[0.4, 0]",1,incongruent,,,,,,,,,,,,,,,,,,,,,,,,,,,,,,0,6,6,36,,,,,,,,,,,,,,,,,,,,,,,,,,,,,,,,,,,,,,588.131937099999,1.0134642000048188,589.1377133999922,589.2212307000009,590.0208473999955,590.1206571999937,590.1206571999937,590.1206571999937,left,0,0.8510544000018854,,,,,,,,,,,,,,,,,,,,,,,,,,,,,,,,,,,,,005,001,2023-11-16_14h12.06.201,ETproject_Chi_2023.1.1,2023.1.1,60.050250050874325,
47,Month,五月,二月,,Hori,late,left,image/Chi_late.png,"[-0.4, 0]","[0.4, 0]",3,incongruent,,,,,,,,,,,,,,,,,,,,,,,,,,,,,,0,7,7,10,,,,,,,,,,,,,,,,,,,,,,,,,,,,,,,,,,,,,,591.0136271999945,1.0111975999898277,592.0200568,592.103529400003,592.9031443999993,593.0032303000044,593.0032303000044,593.0032303000044,left,1,0.6633874000108335,,,,,,,,,,,,,,,,,,,,,,,,,,,,,,,,,,,,,005,001,2023-11-16_14h12.06.201,ETproject_Chi_2023.1.1,2023.1.1,60.050250050874325,
122,Week,星期五,星期日,,Vert,late,down,image/Chi_late.png,"[0, 0.4]","[0, -0.4]",2,congruent,,,,,,,,,,,,,,,,,,,,,,,,,,,,,,0,8,8,40,,,,,,,,,,,,,,,,,,,,,,,,,,,,,,,,,,,,,,594.6928180999967,1.014676100006909,595.7020673999941,595.7855204999942,596.5853078999935,596.6853602000047,596.6853602000047,596.6853602000047,down,1,0.982217099997797,,,,,,,,,,,,,,,,,,,,,,,,,,,,,,,,,,,,,005,001,2023-11-16_14h12.06.201,ETproject_Chi_2023.1.1,2023.1.1,60.050250050874325,
31,Month,七月,十一月 ,,Vert,late,down,image/Chi_late.png,"[0, 0.4]","[0, -0.4]",4,congruent,,,,,,,,,,,,,,,,,,,,,,,,,,,,,,0,9,9,6,,,,,,,,,,,,,,,,,,,,,,,,,,,,,,,,,,,,,,597.6944708999945,1.01146080000035,598.7012834999914,598.7845981999999,599.5840901000047,599.6841724999977,599.6841724999977,599.6841724999977,down,1,0.7579508000053465,,,,,,,,,,,,,,,,,,,,,,,,,,,,,,,,,,,,,005,001,2023-11-16_14h12.06.201,ETproject_Chi_2023.1.1,2023.1.1,60.050250050874325,
69,Month,十一月 ,九月 ,,Vert,early,down,image/Chi_early.png,"[0, 0.4]","[0, -0.4]",2,incongruent,,,,,,,,,,,,,,,,,,,,,,,,,,,,,,0,10,10,32,,,,,,,,,,,,,,,,,,,,,,,,,,,,,,,,,,,,,,600.4796375000005,1.0111187000002246,601.4835625999985,601.5669239999988,602.366640799999,602.4667526999983,602.4667526999983,602.4667526999983,down,1,0.8881881999986945,,,,,,,,,,,,,,,,,,,,,,,,,,,,,,,,,,,,,005,001,2023-11-16_14h12.06.201,ETproject_Chi_2023.1.1,2023.1.1,60.050250050874325,
43,Month,五月,三月,,Hori,early,right,image/Chi_early.png,"[-0.4, 0]","[0.4, 0]",2,incongruent,,,,,,,,,,,,,,,,,,,,,,,,,,,,,,0,11,11,16,,,,,,,,,,,,,,,,,,,,,,,,,,,,,,,,,,,,,,604.3896814000036,1.0143074999941746,605.3989879000001,605.4824283000053,606.2819901000039,606.3819974999933,606.3819974999933,606.3819974999933,left,0,1.468913300006534,,,,,,,,,,,,,,,,,,,,,,,,,,,,,,,,,,,,,005,001,2023-11-16_14h12.06.201,ETproject_Chi_2023.1.1,2023.1.1,60.050250050874325,
38,Month,五月,六月,,Vert,late,down,image/Chi_late.png,"[0, 0.4]","[0, -0.4]",1,congruent,,,,,,,,,,,,,,,,,,,,,,,,,,,,,,0,12,12,20,,,,,,,,,,,,,,,,,,,,,,,,,,,,,,,,,,,,,,607.8923013000021,1.0111031999986153,608.8979630999966,608.9810142999922,609.7807487999962,609.8809708000044,609.8809708000044,609.8809708000044,down,1,0.8011044000013499,,,,,,,,,,,,,,,,,,,,,,,,,,,,,,,,,,,,,005,001,2023-11-16_14h12.06.201,ETproject_Chi_2023.1.1,2023.1.1,60.050250050874325,
143,Week,星期日,星期五,,Vert,early,down,image/Chi_early.png,"[0, 0.4]","[0, -0.4]",2,incongruent,,,,,,,,,,,,,,,,,,,,,,,,,,,,,,0,13,13,22,,,,,,,,,,,,,,,,,,,,,,,,,,,,,,,,,,,,,,610.7235379000049,1.0148607000010088,611.7303613999975,611.8135787999927,612.613262999992,612.7132118000009,612.7132118000009,612.7132118000009,down,1,1.3128869999927701,,,,,,,,,,,,,,,,,,,,,,,,,,,,,,,,,,,,,005,001,2023-11-16_14h12.06.201,ETproject_Chi_2023.1.1,2023.1.1,60.050250050874325,
149,Week,星期五,星期四,,Vert,late,up,image/Chi_late.png,"[0, 0.4]","[0, -0.4]",1,incongruent,,,,,,,,,,,,,,,,,,,,,,,,,,,,,,0,14,14,8,,,,,,,,,,,,,,,,,,,,,,,,,,,,,,,,,,,,,,614.0571898000053,1.0131717000040226,615.0625337999954,615.1457579999988,615.9454661999916,616.0455580999987,616.0455580999987,616.0455580999987,up,1,3.6535983000067063,,,,,,,,,,,,,,,,,,,,,,,,,,,,,,,,,,,,,005,001,2023-11-16_14h12.06.201,ETproject_Chi_2023.1.1,2023.1.1,60.050250050874325,
68,Month,三月,二月,,Vert,early,down,image/Chi_early.png,"[0, 0.4]","[0, -0.4]",1,incongruent,,,,,,,,,,,,,,,,,,,,,,,,,,,,,,0,15,15,46,,,,,,,,,,,,,,,,,,,,,,,,,,,,,,,,,,,,,,619.7397360000032,1.0116634000005433,620.743938700005,620.8273657999962,621.6268247999978,621.7269412000023,621.7269412000023,621.7269412000023,down,1,1.0675502000085544,,,,,,,,,,,,,,,,,,,,,,,,,,,,,,,,,,,,,005,001,2023-11-16_14h12.06.201,ETproject_Chi_2023.1.1,2023.1.1,60.050250050874325,
12,Month,二月,四月,,Hori,late,right,image/Chi_late.png,"[-0.4, 0]","[0.4, 0]",2,congruent,,,,,,,,,,,,,,,,,,,,,,,,,,,,,,0,16,16,21,,,,,,,,,,,,,,,,,,,,,,,,,,,,,,,,,,,,,,622.8418721000053,1.010264399999869,623.8428763999982,623.9262699999963,624.7258931999968,624.8260900000023,624.8260900000023,624.8260900000023,right,1,0.8008089000068139,,,,,,,,,,,,,,,,,,,,,,,,,,,,,,,,,,,,,005,001,2023-11-16_14h12.06.201,ETproject_Chi_2023.1.1,2023.1.1,60.050250050874325,
47,Month,九月 ,七月,,Hori,early,right,image/Chi_early.png,"[-0.4, 0]","[0.4, 0]",2,incongruent,,,,,,,,,,,,,,,,,,,,,,,,,,,,,,0,17,17,23,,,,,,,,,,,,,,,,,,,,,,,,,,,,,,,,,,,,,,625.6776783999958,1.0117281999991974,626.6919928999996,626.7587034000026,627.5584140999999,627.6583796999912,627.6583796999912,627.6583796999912,right,1,0.993470300003537,,,,,,,,,,,,,,,,,,,,,,,,,,,,,,,,,,,,,005,001,2023-11-16_14h12.06.201,ETproject_Chi_2023.1.1,2023.1.1,60.050250050874325,
8,Month,八月,十二月,,Hori,early,left,image/Chi_early.png,"[-0.4, 0]","[0.4, 0]",4,congruent,,,,,,,,,,,,,,,,,,,,,,,,,,,,,,0,18,18,7,,,,,,,,,,,,,,,,,,,,,,,,,,,,,,,,,,,,,,628.6859141000023,1.0100259000028018,629.6910448999988,629.7743259999988,630.5740727999946,630.674156299996,630.674156299996,630.674156299996,right,0,2.617050200002268,,,,,,,,,,,,,,,,,,,,,,,,,,,,,,,,,,,,,005,001,2023-11-16_14h12.06.201,ETproject_Chi_2023.1.1,2023.1.1,60.050250050874325,
61,Month,七月,六月,,Hori,late,left,image/Chi_late.png,"[-0.4, 0]","[0.4, 0]",1,incongruent,,,,,,,,,,,,,,,,,,,,,,,,,,,,,,0,19,19,17,,,,,,,,,,,,,,,,,,,,,,,,,,,,,,,,,,,,,,633.3332773000002,1.0133248000056483,634.3396616999962,634.4228719999956,635.2224455999967,635.3224327999924,635.3224327999924,635.3224327999924,right,0,1.0407705000106944,,,,,,,,,,,,,,,,,,,,,,,,,,,,,,,,,,,,,005,001,2023-11-16_14h12.06.201,ETproject_Chi_2023.1.1,2023.1.1,60.050250050874325,
11,Month,一月,三月,,Hori,late,right,image/Chi_late.png,"[-0.4, 0]","[0.4, 0]",2,congruent,,,,,,,,,,,,,,,,,,,,,,,,,,,,,,0,20,20,5,,,,,,,,,,,,,,,,,,,,,,,,,,,,,,,,,,,,,,636.393047599995,0.9992727999924682,637.4051450999978,637.4884628,638.2881427999964,638.3881063000008,638.3881063000008,638.3881063000008,right,1,0.7919879999972181,,,,,,,,,,,,,,,,,,,,,,,,,,,,,,,,,,,,,005,001,2023-11-16_14h12.06.201,ETproject_Chi_2023.1.1,2023.1.1,60.050250050874325,
43,Month,七月,三月,,Hori,late,left,image/Chi_late.png,"[-0.4, 0]","[0.4, 0]",4,incongruent,,,,,,,,,,,,,,,,,,,,,,,,,,,,,,0,21,21,39,,,,,,,,,,,,,,,,,,,,,,,,,,,,,,,,,,,,,,639.2115647000028,1.011589499990805,640.2207295999979,640.3039734000049,641.1038970999944,641.204052999994,641.204052999994,641.204052999994,left,1,1.095540100010112,,,,,,,,,,,,,,,,,,,,,,,,,,,,,,,,,,,,,005,001,2023-11-16_14h12.06.201,ETproject_Chi_2023.1.1,2023.1.1,60.050250050874325,
122,Week,星期五,星期六,,Vert,late,down,image/Chi_late.png,"[0, 0.4]","[0, -0.4]",1,congruent,,,,,,,,,,,,,,,,,,,,,,,,,,,,,,0,22,22,38,,,,,,,,,,,,,,,,,,,,,,,,,,,,,,,,,,,,,,642.3271794000029,1.013888000001316,643.3363967000041,643.4198510999995,644.2196599000017,644.3195951999951,644.3195951999951,644.3195951999951,down,1,2.07530090000364,,,,,,,,,,,,,,,,,,,,,,,,,,,,,,,,,,,,,005,001,2023-11-16_14h12.06.201,ETproject_Chi_2023.1.1,2023.1.1,60.050250050874325,
79,Month,十一月 ,九月 ,,Vert,late,up,image/Chi_late.png,"[0, 0.4]","[0, -0.4]",2,incongruent,,,,,,,,,,,,,,,,,,,,,,,,,,,,,,0,23,23,0,,,,,,,,,,,,,,,,,,,,,,,,,,,,,,,,,,,,,,646.4304590999964,1.0099780000018654,647.4353834999929,647.5183716000029,648.3181288999913,648.4182145999948,648.4182145999948,648.4182145999948,up,1,0.656970200012438,,,,,,,,,,,,,,,,,,,,,,,,,,,,,,,,,,,,,005,001,2023-11-16_14h12.06.201,ETproject_Chi_2023.1.1,2023.1.1,60.050250050874325,
76,Month,十一月 ,十月 ,,Vert,early,down,image/Chi_early.png,"[0, 0.4]","[0, -0.4]",1,incongruent,,,,,,,,,,,,,,,,,,,,,,,,,,,,,,0,24,24,1,,,,,,,,,,,,,,,,,,,,,,,,,,,,,,,,,,,,,,649.1147535999917,1.0116844000003766,650.1177804000035,650.2010051999969,651.0007761000015,651.1007822999964,651.1007822999964,651.1007822999964,down,1,1.1265756000066176,,,,,,,,,,,,,,,,,,,,,,,,,,,,,,,,,,,,,005,001,2023-11-16_14h12.06.201,ETproject_Chi_2023.1.1,2023.1.1,60.050250050874325,
50,Month,七月,六月,,Hori,early,right,image/Chi_early.png,"[-0.4, 0]","[0.4, 0]",1,incongruent,,,,,,,,,,,,,,,,,,,,,,,,,,,,,,0,25,25,28,,,,,,,,,,,,,,,,,,,,,,,,,,,,,,,,,,,,,,652.2548089000047,0.9990949000057299,653.2664753999998,653.3500480999937,654.1495449999929,654.249670899997,654.249670899997,654.249670899997,right,1,1.041963499999838,,,,,,,,,,,,,,,,,,,,,,,,,,,,,,,,,,,,,005,001,2023-11-16_14h12.06.201,ETproject_Chi_2023.1.1,2023.1.1,60.050250050874325,
64,Month,四月,一月,,Vert,late,up,image/Chi_late.png,"[0, 0.4]","[0, -0.4]",3,incongruent,,,,,,,,,,,,,,,,,,,,,,,,,,,,,,0,26,26,24,,,,,,,,,,,,,,,,,,,,,,,,,,,,,,,,,,,,,,655.3322315999976,1.0105344999901718,656.3321985999937,656.4154835999943,657.2152770999965,657.3152279999922,657.3152279999922,657.3152279999922,down,0,0.6228876000095624,,,,,,,,,,,,,,,,,,,,,,,,,,,,,,,,,,,,,005,001,2023-11-16_14h12.06.201,ETproject_Chi_2023.1.1,2023.1.1,60.050250050874325,
32,Month,十月 ,十一月 ,,Vert,early,up,image/Chi_early.png,"[0, 0.4]","[0, -0.4]",1,congruent,,,,,,,,,,,,,,,,,,,,,,,,,,,,,,0,27,27,44,,,,,,,,,,,,,,,,,,,,,,,,,,,,,,,,,,,,,,657.973834999997,1.0140074999944773,658.9815071000048,659.0647666000004,659.8645090999926,659.9643534999923,659.9643534999923,659.9643534999923,up,1,1.3115034000074957,,,,,,,,,,,,,,,,,,,,,,,,,,,,,,,,,,,,,005,001,2023-11-16_14h12.06.201,ETproject_Chi_2023.1.1,2023.1.1,60.050250050874325,
38,Month,十月 ,六月,,Hori,early,right,image/Chi_early.png,"[-0.4, 0]","[0.4, 0]",4,incongruent,,,,,,,,,,,,,,,,,,,,,,,,,,,,,,0,28,28,18,,,,,,,,,,,,,,,,,,,,,,,,,,,,,,,,,,,,,,661.3010932000034,1.014476399999694,662.3134535999998,662.3969108000019,663.1964795999957,663.2965675000014,663.2965675000014,663.2965675000014,left,0,2.5071610000013607,,,,,,,,,,,,,,,,,,,,,,,,,,,,,,,,,,,,,005,001,2023-11-16_14h12.06.201,ETproject_Chi_2023.1.1,2023.1.1,60.050250050874325,
50,Month,六月,二月,,Vert,early,down,image/Chi_early.png,"[0, 0.4]","[0, -0.4]",4,incongruent,,,,,,,,,,,,,,,,,,,,,,,,,,,,,,0,29,29,30,,,,,,,,,,,,,,,,,,,,,,,,,,,,,,,,,,,,,,665.8400255000015,1.0117579999932786,666.8452630999964,666.9287531000009,667.7283855999995,667.828409099995,667.828409099995,667.828409099995,down,1,1.0697517999942647,,,,,,,,,,,,,,,,,,,,,,,,,,,,,,,,,,,,,005,001,2023-11-16_14h12.06.201,ETproject_Chi_2023.1.1,2023.1.1,60.050250050874325,
133,Week,星期五,星期二,,Hori,late,left,image/Chi_late.png,"[-0.4, 0]","[0.4, 0]",3,incongruent,,,,,,,,,,,,,,,,,,,,,,,,,,,,,,0,30,30,49,,,,,,,,,,,,,,,,,,,,,,,,,,,,,,,,,,,,,,668.9411915999954,1.0119129000086104,669.9442285999976,670.027612299993,670.8276587,670.9274818999984,670.9274818999984,670.9274818999984,left,1,0.99639160001243,,,,,,,,,,,,,,,,,,,,,,,,,,,,,,,,,,,,,005,001,2023-11-16_14h12.06.201,ETproject_Chi_2023.1.1,2023.1.1,60.050250050874325,
47,Month,十一月 ,七月,,Hori,late,left,image/Chi_late.png,"[-0.4, 0]","[0.4, 0]",4,incongruent,,,,,,,,,,,,,,,,,,,,,,,,,,,,,,0,31,31,37,,,,,,,,,,,,,,,,,,,,,,,,,,,,,,,,,,,,,,671.9534764999989,1.0114614000049187,672.960044099993,673.0432779999974,673.843083899992,673.9431711999932,673.9431711999932,673.9431711999932,left,1,0.763569800008554,,,,,,,,,,,,,,,,,,,,,,,,,,,,,,,,,,,,,005,001,2023-11-16_14h12.06.201,ETproject_Chi_2023.1.1,2023.1.1,60.050250050874325,
42,Month,九月 ,六月,,Hori,early,right,image/Chi_early.png,"[-0.4, 0]","[0.4, 0]",3,incongruent,,,,,,,,,,,,,,,,,,,,,,,,,,,,,,0,32,32,4,,,,,,,,,,,,,,,,,,,,,,,,,,,,,,,,,,,,,,674.7377573999984,1.011877299999469,675.7424000000028,675.8257963999931,676.6253525999928,676.7254414000054,676.7254414000054,676.7254414000054,right,1,0.8369474999926751,,,,,,,,,,,,,,,,,,,,,,,,,,,,,,,,,,,,,005,001,2023-11-16_14h12.06.201,ETproject_Chi_2023.1.1,2023.1.1,60.050250050874325,
9,Month,九月 ,十月 ,,Hori,early,left,image/Chi_early.png,"[-0.4, 0]","[0.4, 0]",1,congruent,,,,,,,,,,,,,,,,,,,,,,,,,,,,,,0,33,33,47,,,,,,,,,,,,,,,,,,,,,,,,,,,,,,,,,,,,,,677.6041442999995,1.0116018000117037,678.6080972999916,678.6916311999958,679.4913783999946,679.5912090999918,679.5912090999918,679.5912090999918,None,0,,,,,,,,,,,,,,,,,,,,,,,,,,,,,,,,,,,,,,005,001,2023-11-16_14h12.06.201,ETproject_Chi_2023.1.1,2023.1.1,60.050250050874325,
3,Month,三月,五月,,Hori,early,left,image/Chi_early.png,"[-0.4, 0]","[0.4, 0]",2,congruent,,,,,,,,,,,,,,,,,,,,,,,,,,,,,,0,34,34,29,,,,,,,,,,,,,,,,,,,,,,,,,,,,,,,,,,,,,,684.6159020999912,1.00927710000542,685.6227100999968,685.6891844000056,686.4889400999964,686.5891338999936,686.5891338999936,686.5891338999936,left,1,0.8937719999958063,,,,,,,,,,,,,,,,,,,,,,,,,,,,,,,,,,,,,005,001,2023-11-16_14h12.06.201,ETproject_Chi_2023.1.1,2023.1.1,60.050250050874325,
118,Week,星期一,星期三 ,,Vert,late,down,image/Chi_late.png,"[0, 0.4]","[0, -0.4]",2,congruent,,,,,,,,,,,,,,,,,,,,,,,,,,,,,,0,35,35,43,,,,,,,,,,,,,,,,,,,,,,,,,,,,,,,,,,,,,,687.5183684999938,1.0115428999997675,688.5214764999982,688.6049973000045,689.4045981999952,689.5045775000035,689.5045775000035,689.5045775000035,down,1,0.993689600014477,,,,,,,,,,,,,,,,,,,,,,,,,,,,,,,,,,,,,005,001,2023-11-16_14h12.06.201,ETproject_Chi_2023.1.1,2023.1.1,60.050250050874325,
33,Month,十一月 ,十二月,,Vert,early,up,image/Chi_early.png,"[0, 0.4]","[0, -0.4]",1,congruent,,,,,,,,,,,,,,,,,,,,,,,,,,,,,,0,36,36,2,,,,,,,,,,,,,,,,,,,,,,,,,,,,,,,,,,,,,,690.532394599999,1.0120660999964457,691.5371174000029,691.6205918999913,692.4203215000016,692.5204538999969,692.5204538999969,692.5204538999969,up,1,1.0017688000079943,,,,,,,,,,,,,,,,,,,,,,,,,,,,,,,,,,,,,005,001,2023-11-16_14h12.06.201,ETproject_Chi_2023.1.1,2023.1.1,60.050250050874325,
36,Month,八月,四月,,Hori,early,right,image/Chi_early.png,"[-0.4, 0]","[0.4, 0]",4,incongruent,,,,,,,,,,,,,,,,,,,,,,,,,,,,,,0,37,37,27,,,,,,,,,,,,,,,,,,,,,,,,,,,,,,,,,,,,,,693.5624526000029,1.0115515000070445,694.5696736999962,694.6531042999995,695.4527683000051,695.5527588999976,695.5527588999976,695.5527588999976,right,1,0.794687800007523,,,,,,,,,,,,,,,,,,,,,,,,,,,,,,,,,,,,,005,001,2023-11-16_14h12.06.201,ETproject_Chi_2023.1.1,2023.1.1,60.050250050874325,
107,Week,星期四,星期五,,Hori,late,right,image/Chi_late.png,"[-0.4, 0]","[0.4, 0]",1,congruent,,,,,,,,,,,,,,,,,,,,,,,,,,,,,,0,38,38,19,,,,,,,,,,,,,,,,,,,,,,,,,,,,,,,,,,,,,,696.3785713999969,1.0149729999975534,697.3853065000003,697.4687845000008,698.2685079999937,698.3684419999918,698.3684419999918,698.3684419999918,right,1,0.7617584000108764,,,,,,,,,,,,,,,,,,,,,,,,,,,,,,,,,,,,,005,001,2023-11-16_14h12.06.201,ETproject_Chi_2023.1.1,2023.1.1,60.050250050874325,
107,Week,星期四,星期日,,Hori,late,right,image/Chi_late.png,"[-0.4, 0]","[0.4, 0]",3,congruent,,,,,,,,,,,,,,,,,,,,,,,,,,,,,,0,39,39,34,,,,,,,,,,,,,,,,,,,,,,,,,,,,,,,,,,,,,,699.1604243000038,1.012304599993513,700.1676485999924,700.2511240000022,701.0510961999971,701.1507794999925,701.1507794999925,701.1507794999925,right,1,1.1084546000056434,,,,,,,,,,,,,,,,,,,,,,,,,,,,,,,,,,,,,005,001,2023-11-16_14h12.06.201,ETproject_Chi_2023.1.1,2023.1.1,60.050250050874325,
119,Week,星期二,星期四,,Vert,late,down,image/Chi_late.png,"[0, 0.4]","[0, -0.4]",2,congruent,,,,,,,,,,,,,,,,,,,,,,,,,,,,,,0,40,40,45,,,,,,,,,,,,,,,,,,,,,,,,,,,,,,,,,,,,,,702.2915536999935,1.011942299999646,703.2999304999976,703.3833855999983,704.1832204999955,704.2831657999923,704.2831657999923,704.2831657999923,down,1,1.70385730000271,,,,,,,,,,,,,,,,,,,,,,,,,,,,,,,,,,,,,005,001,2023-11-16_14h12.06.201,ETproject_Chi_2023.1.1,2023.1.1,60.050250050874325,
136,Week,星期六,星期五,,Hori,late,left,image/Chi_late.png,"[-0.4, 0]","[0.4, 0]",1,incongruent,,,,,,,,,,,,,,,,,,,,,,,,,,,,,,0,41,41,13,,,,,,,,,,,,,,,,,,,,,,,,,,,,,,,,,,,,,,706.0206824000052,0.9990460999979405,707.0321909000049,707.1154594999971,707.9153016999917,708.0150758999953,708.0150758999953,708.0150758999953,left,1,1.0922743999981321,,,,,,,,,,,,,,,,,,,,,,,,,,,,,,,,,,,,,005,001,2023-11-16_14h12.06.201,ETproject_Chi_2023.1.1,2023.1.1,60.050250050874325,
106,Week,星期三 ,星期五,,Hori,late,right,image/Chi_late.png,"[-0.4, 0]","[0.4, 0]",2,congruent,,,,,,,,,,,,,,,,,,,,,,,,,,,,,,0,42,42,33,,,,,,,,,,,,,,,,,,,,,,,,,,,,,,,,,,,,,,709.1351581999916,1.0157421999901999,710.1478696999984,710.2310367000027,711.0307523999945,711.1310870000016,711.1310870000016,711.1310870000016,right,1,0.640322000006563,,,,,,,,,,,,,,,,,,,,,,,,,,,,,,,,,,,,,005,001,2023-11-16_14h12.06.201,ETproject_Chi_2023.1.1,2023.1.1,60.050250050874325,
57,Month,五月,一月,,Vert,late,up,image/Chi_late.png,"[0, 0.4]","[0, -0.4]",4,incongruent,,,,,,,,,,,,,,,,,,,,,,,,,,,,,,0,43,43,25,,,,,,,,,,,,,,,,,,,,,,,,,,,,,,,,,,,,,,712.804702399997,1.0143666999938432,713.8132712999941,713.896433300004,714.6963874999929,714.7963558000047,714.7963558000047,714.7963558000047,up,1,1.0941571000003023,,,,,,,,,,,,,,,,,,,,,,,,,,,,,,,,,,,,,005,001,2023-11-16_14h12.06.201,ETproject_Chi_2023.1.1,2023.1.1,60.050250050874325,
55,Month,七月,五月,,Hori,late,left,image/Chi_late.png,"[-0.4, 0]","[0.4, 0]",2,incongruent,,,,,,,,,,,,,,,,,,,,,,,,,,,,,,0,44,44,11,,,,,,,,,,,,,,,,,,,,,,,,,,,,,,,,,,,,,,715.924156699999,1.0102856000012252,716.9287771999952,717.0122561000026,717.8120845999947,717.9117638000025,717.9117638000025,717.9117638000025,left,1,4.395888700004434,,,,,,,,,,,,,,,,,,,,,,,,,,,,,,,,,,,,,005,001,2023-11-16_14h12.06.201,ETproject_Chi_2023.1.1,2023.1.1,60.050250050874325,
32,Month,五月,八月,,Vert,late,down,image/Chi_late.png,"[0, 0.4]","[0, -0.4]",3,congruent,,,,,,,,,,,,,,,,,,,,,,,,,,,,,,0,45,45,9,,,,,,,,,,,,,,,,,,,,,,,,,,,,,,,,,,,,,,722.3388187999954,1.011624299993855,723.343379900005,723.4267235000007,724.2265662999998,724.3264003999939,724.3264003999939,724.3264003999939,down,1,0.8677890999970259,,,,,,,,,,,,,,,,,,,,,,,,,,,,,,,,,,,,,005,001,2023-11-16_14h12.06.201,ETproject_Chi_2023.1.1,2023.1.1,60.050250050874325,
63,Month,十一月 ,七月,,Vert,late,up,image/Chi_late.png,"[0, 0.4]","[0, -0.4]",4,incongruent,,,,,,,,,,,,,,,,,,,,,,,,,,,,,,0,46,46,3,,,,,,,,,,,,,,,,,,,,,,,,,,,,,,,,,,,,,,725.2309046000009,0.9990258000034373,726.2426470999926,726.3257808999915,727.1254629000032,727.2254792000022,727.2254792000022,727.2254792000022,up,1,0.5773582999972859,,,,,,,,,,,,,,,,,,,,,,,,,,,,,,,,,,,,,005,001,2023-11-16_14h12.06.201,ETproject_Chi_2023.1.1,2023.1.1,60.050250050874325,
15,Month,七月,十一月 ,,Hori,late,right,image/Chi_late.png,"[-0.4, 0]","[0.4, 0]",4,congruent,,,,,,,,,,,,,,,,,,,,,,,,,,,,,,0,47,47,15,,,,,,,,,,,,,,,,,,,,,,,,,,,,,,,,,,,,,,727.8315869999933,1.013936300005298,728.841549299992,728.9249220000056,729.7246644999977,729.8247214000003,729.8247214000003,729.8247214000003,right,1,0.802224799990654,,,,,,,,,,,,,,,,,,,,,,,,,,,,,,,,,,,,,005,001,2023-11-16_14h12.06.201,ETproject_Chi_2023.1.1,2023.1.1,60.050250050874325,
127,Week,星期四,星期三 ,,Hori,early,right,image/Chi_early.png,"[-0.4, 0]","[0.4, 0]",1,incongruent,,,,,,,,,,,,,,,,,,,,,,,,,,,,,,0,48,48,48,,,,,,,,,,,,,,,,,,,,,,,,,,,,,,,,,,,,,,730.671846199999,1.0124134000070626,731.6741028999968,731.757385799996,732.5572707999963,732.6569986999966,732.6569986999966,732.6569986999966,right,1,0.8578481000004103,,,,,,,,,,,,,,,,,,,,,,,,,,,,,,,,,,,,,005,001,2023-11-16_14h12.06.201,ETproject_Chi_2023.1.1,2023.1.1,60.050250050874325,
52,Month,十月 ,七月,,Hori,late,left,image/Chi_late.png,"[-0.4, 0]","[0.4, 0]",3,incongruent,,,,,,,,,,,,,,,,,,,,,,,,,,,,,,0,49,49,41,,,,,,,,,,,,,,,,,,,,,,,,,,,,,,,,,,,,,,733.5533883000026,1.0113543000043137,734.5563370000018,734.6397952999978,735.4395046999998,735.5392879999999,735.5392879999999,735.5392879999999,left,1,0.7915822000068147,,,,,,,,,,,,,,,,,,,,,,,,,,,,,,,,,,,,,005,001,2023-11-16_14h12.06.201,ETproject_Chi_2023.1.1,2023.1.1,60.050250050874325,
,,,,,,,,,,,,,,,,,,,,,,,,,,,,,,,,,,,,,,,,,,,,,,,,,,,,,,,,,,,,,,,,,,,,,,,,,,,,,,,,,,,,,,,,,,,,,,,,,,,,,,,,,,,,,,,,,,,,,,,,736.3561074000027,736.3561074000027,space,3.085966099999496,,,,,,,005,001,2023-11-16_14h12.06.201,ETproject_Chi_2023.1.1,2023.1.1,60.050250050874325,
,,,,,,,,,,,,,Spring 1.jpg,这是春天吗？,是,Left,Break_material/Image/Spring 1.jpg,,,,,,,,,,,,,,,,,,,,,,,,,,,,,0,0,0,0,,,,,,,,,,,,,,,,,,,,,,,,,,,,,,,,,,,,,,,,,,,,,,,,,739.5230198999925,743.4565923000046,743.5203184999991,745.469603000005,745.469603000005,745.469603000005,745.469603000005,left,0,0.8367082000040682,,,,,,,,,,,,,,,,,,,,,,,005,001,2023-11-16_14h12.06.201,ETproject_Chi_2023.1.1,2023.1.1,60.050250050874325,
,,,,,,,,,,,,,Spring 3.jpg,这是夏天吗？,否,Right,Break_material/Image/Spring 3.jpg,,,,,,,,,,,,,,,,,,,,,,,,,,,,,0,1,1,2,,,,,,,,,,,,,,,,,,,,,,,,,,,,,,,,,,,,,,,,,,,,,,,,,746.3925964999944,750.3211821000004,750.4013236000028,752.3341624000022,752.3341624000022,752.3341624000022,752.3341624000022,left,0,0.47585580000304617,,,,,,,,,,,,,,,,,,,,,,,005,001,2023-11-16_14h12.06.201,ETproject_Chi_2023.1.1,2023.1.1,60.050250050874325,
,,,,,,,,,,,,,Spring 5.jpg,这是冬天吗？,否,Right,Break_material/Image/Spring 5.jpg,,,,,,,,,,,,,,,,,,,,,,,,,,,,,0,2,2,4,,,,,,,,,,,,,,,,,,,,,,,,,,,,,,,,,,,,,,,,,,,,,,,,,753.2929161999928,756.8210543000023,757.2989552999934,758.8320647999935,758.8320647999935,758.8320647999935,758.8320647999935,right,0,0.6740247999987332,,,,,,,,,,,,,,,,,,,,,,,005,001,2023-11-16_14h12.06.201,ETproject_Chi_2023.1.1,2023.1.1,60.050250050874325,
,,,,,,,,,,,,,Spring 4.jpg,这是秋天吗？,否,Right,Break_material/Image/Spring 4.jpg,,,,,,,,,,,,,,,,,,,,,,,,,,,,,0,3,3,3,,,,,,,,,,,,,,,,,,,,,,,,,,,,,,,,,,,,,,,,,,,,,,,,,759.9010560000024,763.5173691999953,763.8965103999944,765.5294717999932,765.5294717999932,765.5294717999932,765.5294717999932,None,0,,,,,,,,,,,,,,,,,,,,,,,,005,001,2023-11-16_14h12.06.201,ETproject_Chi_2023.1.1,2023.1.1,60.050250050874325,
,,,,,,,,,,,,,Spring 2.jpg,这是冬天吗？,否,Right,Break_material/Image/Spring 2.jpg,,,,,,,,,,,,,,,,,,,,,,,,,,,,,0,4,4,1,,,,,,,,,,,,,,,,,,,,,,,,,,,,,,,,,,,,,,,,,,,,,,,,,770.6430508000049,774.5300522000034,774.643327800004,776.5425662000052,776.5259094999928,776.5259094999928,776.5259094999928,right,0,0.6937057000031928,,,,,,,,,,,,,,,,,,,,,,,005,001,2023-11-16_14h12.06.201,ETproject_Chi_2023.1.1,2023.1.1,60.050250050874325,
,,,,,,,,,,,,,,,,,,,,,,,,,,,,,,,,,,,,,,,,,,,,,,,,,,,,,,,,,,,,,,,,,,,,,,,,,,,,,,,,,,,,,,,,,,,,,,,,,,,,,,,,,,,,,,,,,,,,,,,,,,,,777.2424587999994,777.2424587999994,space,2.2652688000089256,,,005,001,2023-11-16_14h12.06.201,ETproject_Chi_2023.1.1,2023.1.1,60.050250050874325,
2,Month,二月,四月,,Hori,early,left,image/Chi_early.png,"[-0.4, 0]","[0.4, 0]",2,congruent,,,,,,,,,,,,,,,,,,,,,,,,,,,,,,,,,,,,,,0,0,0,5,,,,,,,,,,,,,,,,,,,,,,,,,,,,,,779.5422379999945,0.999054799991427,780.5412613999943,780.6246135999972,781.424416599999,781.5243290999933,781.5243290999933,781.5243290999933,left,1,0.9436210999992909,,,,,,,,,,,,,,,,,,,,,,,,,,,,,,,,,,,,,005,001,2023-11-16_14h12.06.201,ETproject_Chi_2023.1.1,2023.1.1,60.050250050874325,
106,Week,星期三 ,星期四,,Hori,late,right,image/Chi_late.png,"[-0.4, 0]","[0.4, 0]",1,congruent,,,,,,,,,,,,,,,,,,,,,,,,,,,,,,,,,,,,,,0,1,1,28,,,,,,,,,,,,,,,,,,,,,,,,,,,,,,782.5030168999947,1.010896199994022,783.5069946000003,783.5901946999948,784.3899805999972,784.4899762999994,784.4899762999994,784.4899762999994,right,1,0.9215074999956414,,,,,,,,,,,,,,,,,,,,,,,,,,,,,,,,,,,,,005,001,2023-11-16_14h12.06.201,ETproject_Chi_2023.1.1,2023.1.1,60.050250050874325,
35,Month,五月,七月,,Vert,late,down,image/Chi_late.png,"[0, 0.4]","[0, -0.4]",2,congruent,,,,,,,,,,,,,,,,,,,,,,,,,,,,,,,,,,,,,,0,2,2,4,,,,,,,,,,,,,,,,,,,,,,,,,,,,,,785.4481603000022,1.011605400010012,786.4559280999965,786.5393097000051,787.3390120999975,787.4391780000005,787.4391780000005,787.4391780000005,up,0,0.915045600006124,,,,,,,,,,,,,,,,,,,,,,,,,,,,,,,,,,,,,005,001,2023-11-16_14h12.06.201,ETproject_Chi_2023.1.1,2023.1.1,60.050250050874325,
48,Month,五月,四月,,Hori,early,right,image/Chi_early.png,"[-0.4, 0]","[0.4, 0]",1,incongruent,,,,,,,,,,,,,,,,,,,,,,,,,,,,,,,,,,,,,,0,3,3,37,,,,,,,,,,,,,,,,,,,,,,,,,,,,,,788.3801741999923,0.9990142000024207,789.388483200004,789.4717301999917,790.2713604000019,790.3714569000003,790.3714569000003,790.3714569000003,right,1,1.0958387999999104,,,,,,,,,,,,,,,,,,,,,,,,,,,,,,,,,,,,,005,001,2023-11-16_14h12.06.201,ETproject_Chi_2023.1.1,2023.1.1,60.050250050874325,
22,Month,二月,四月,,Vert,early,up,image/Chi_early.png,"[0, 0.4]","[0, -0.4]",2,congruent,,,,,,,,,,,,,,,,,,,,,,,,,,,,,,,,,,,,,,0,4,4,39,,,,,,,,,,,,,,,,,,,,,,,,,,,,,,791.4907893999916,1.0153667999984464,792.5040237999929,792.5872971999925,793.3871475000051,793.4871064000035,793.4871064000035,793.4871064000035,up,1,0.8759470000077272,,,,,,,,,,,,,,,,,,,,,,,,,,,,,,,,,,,,,005,001,2023-11-16_14h12.06.201,ETproject_Chi_2023.1.1,2023.1.1,60.050250050874325,
20,Month,十月 ,十二月,,Hori,late,right,image/Chi_late.png,"[-0.4, 0]","[0.4, 0]",2,congruent,,,,,,,,,,,,,,,,,,,,,,,,,,,,,,,,,,,,,,0,5,5,24,,,,,,,,,,,,,,,,,,,,,,,,,,,,,,794.4018923999975,1.0129669000016293,795.4029802000005,795.4862788000028,796.2860465999984,796.3862088000024,796.3862088000024,796.3862088000024,right,1,0.7133265000011306,,,,,,,,,,,,,,,,,,,,,,,,,,,,,,,,,,,,,005,001,2023-11-16_14h12.06.201,ETproject_Chi_2023.1.1,2023.1.1,60.050250050874325,
112,Week,星期二,星期四,,Vert,early,up,image/Chi_early.png,"[0, 0.4]","[0, -0.4]",2,congruent,,,,,,,,,,,,,,,,,,,,,,,,,,,,,,,,,,,,,,0,6,6,41,,,,,,,,,,,,,,,,,,,,,,,,,,,,,,797.1308074999979,1.0109074999927543,798.1355881999916,798.2189510000026,799.0185669000057,799.1186463000049,799.1186463000049,799.1186463000049,up,1,0.916359900002135,,,,,,,,,,,,,,,,,,,,,,,,,,,,,,,,,,,,,005,001,2023-11-16_14h12.06.201,ETproject_Chi_2023.1.1,2023.1.1,60.050250050874325,
73,Month,八月,七月,,Vert,early,down,image/Chi_early.png,"[0, 0.4]","[0, -0.4]",1,incongruent,,,,,,,,,,,,,,,,,,,,,,,,,,,,,,,,,,,,,,0,7,7,29,,,,,,,,,,,,,,,,,,,,,,,,,,,,,,800.0605283000041,1.0115684000047622,801.0680321999971,801.1512409999996,801.9509163000039,802.0507699000009,802.0507699000009,802.0507699000009,down,1,2.6010795000038343,,,,,,,,,,,,,,,,,,,,,,,,,,,,,,,,,,,,,005,001,2023-11-16_14h12.06.201,ETproject_Chi_2023.1.1,2023.1.1,60.050250050874325,
33,Month,六月,九月 ,,Vert,late,down,image/Chi_late.png,"[0, 0.4]","[0, -0.4]",3,congruent,,,,,,,,,,,,,,,,,,,,,,,,,,,,,,,,,,,,,,0,8,8,44,,,,,,,,,,,,,,,,,,,,,,,,,,,,,,804.6978972999932,1.011064099991927,805.6997635000007,805.7828844000032,806.5826686999935,806.682810600003,806.682810600003,806.682810600003,up,0,3.2245263999939198,,,,,,,,,,,,,,,,,,,,,,,,,,,,,,,,,,,,,005,001,2023-11-16_14h12.06.201,ETproject_Chi_2023.1.1,2023.1.1,60.050250050874325,
147,Week,星期五,星期二,,Vert,late,up,image/Chi_late.png,"[0, 0.4]","[0, -0.4]",3,incongruent,,,,,,,,,,,,,,,,,,,,,,,,,,,,,,,,,,,,,,0,9,9,21,,,,,,,,,,,,,,,,,,,,,,,,,,,,,,810.9373145999998,1.0155163000017637,811.9475883999985,812.0310314999952,812.8308575999981,812.930594999998,812.930594999998,812.930594999998,up,1,1.168092499996419,,,,,,,,,,,,,,,,,,,,,,,,,,,,,,,,,,,,,005,001,2023-11-16_14h12.06.201,ETproject_Chi_2023.1.1,2023.1.1,60.050250050874325,
132,Week,星期二,星期一,,Hori,late,left,image/Chi_late.png,"[-0.4, 0]","[0.4, 0]",1,incongruent,,,,,,,,,,,,,,,,,,,,,,,,,,,,,,,,,,,,,,0,10,10,36,,,,,,,,,,,,,,,,,,,,,,,,,,,,,,814.1378097999986,1.0127293999976246,815.1465353999956,815.229929699999,816.0297828000039,816.1296323999995,816.1296323999995,816.1296323999995,left,1,0.952722799993353,,,,,,,,,,,,,,,,,,,,,,,,,,,,,,,,,,,,,005,001,2023-11-16_14h12.06.201,ETproject_Chi_2023.1.1,2023.1.1,60.050250050874325,
6,Month,六月,七月,,Hori,early,left,image/Chi_early.png,"[-0.4, 0]","[0.4, 0]",1,congruent,,,,,,,,,,,,,,,,,,,,,,,,,,,,,,,,,,,,,,0,11,11,33,,,,,,,,,,,,,,,,,,,,,,,,,,,,,,817.1242707999918,0.9990102000010666,818.1288791999978,818.212288499999,819.0119519,819.1118797999952,819.1118797999952,819.1118797999952,left,1,0.8024450999946566,,,,,,,,,,,,,,,,,,,,,,,,,,,,,,,,,,,,,005,001,2023-11-16_14h12.06.201,ETproject_Chi_2023.1.1,2023.1.1,60.050250050874325,
133,Week,星期三 ,星期二,,Hori,late,left,image/Chi_late.png,"[-0.4, 0]","[0.4, 0]",1,incongruent,,,,,,,,,,,,,,,,,,,,,,,,,,,,,,,,,,,,,,0,12,12,30,,,,,,,,,,,,,,,,,,,,,,,,,,,,,,819.9553598999919,1.014727400004631,820.9612342000037,821.0445272999932,821.8444720999978,821.9444436000049,821.9444436000049,821.9444436000049,left,1,1.0661119000142207,,,,,,,,,,,,,,,,,,,,,,,,,,,,,,,,,,,,,005,001,2023-11-16_14h12.06.201,ETproject_Chi_2023.1.1,2023.1.1,60.050250050874325,
142,Week,星期六,星期四,,Vert,early,down,image/Chi_early.png,"[0, 0.4]","[0, -0.4]",2,incongruent,,,,,,,,,,,,,,,,,,,,,,,,,,,,,,,,,,,,,,0,13,13,15,,,,,,,,,,,,,,,,,,,,,,,,,,,,,,824.0365630000015,1.014018699992448,825.0433327999926,825.1266484999942,825.9263016000041,826.0262178999983,826.0262178999983,826.0262178999983,up,0,3.7605563000106486,,,,,,,,,,,,,,,,,,,,,,,,,,,,,,,,,,,,,005,001,2023-11-16_14h12.06.201,ETproject_Chi_2023.1.1,2023.1.1,60.050250050874325,
41,Month,八月,九月 ,,Vert,late,down,image/Chi_late.png,"[0, 0.4]","[0, -0.4]",1,congruent,,,,,,,,,,,,,,,,,,,,,,,,,,,,,,,,,,,,,,0,14,14,23,,,,,,,,,,,,,,,,,,,,,,,,,,,,,,829.8215195999946,1.0107887000049232,830.8247103000031,830.9079847999965,831.7078798000002,831.8079011999944,831.8079011999944,831.8079011999944,up,0,0.7556397000153083,,,,,,,,,,,,,,,,,,,,,,,,,,,,,,,,,,,,,005,001,2023-11-16_14h12.06.201,ETproject_Chi_2023.1.1,2023.1.1,60.050250050874325,
3,Month,三月,六月,,Hori,early,left,image/Chi_early.png,"[-0.4, 0]","[0.4, 0]",3,congruent,,,,,,,,,,,,,,,,,,,,,,,,,,,,,,,,,,,,,,0,15,15,0,,,,,,,,,,,,,,,,,,,,,,,,,,,,,,832.6004085000022,1.0148289000062505,833.6072139000025,833.6905644999933,834.490049400003,834.5900718000048,834.5900718000048,834.5900718000048,left,1,1.3646722999983467,,,,,,,,,,,,,,,,,,,,,,,,,,,,,,,,,,,,,005,001,2023-11-16_14h12.06.201,ETproject_Chi_2023.1.1,2023.1.1,60.050250050874325,
132,Week,星期三 ,星期一,,Hori,late,left,image/Chi_late.png,"[-0.4, 0]","[0.4, 0]",2,incongruent,,,,,,,,,,,,,,,,,,,,,,,,,,,,,,,,,,,,,,0,16,16,2,,,,,,,,,,,,,,,,,,,,,,,,,,,,,,835.9804028999934,1.0155041000107303,836.9893649000005,837.0727227000025,837.8723169000004,837.9723520999978,837.9723520999978,837.9723520999978,left,1,1.015302800005884,,,,,,,,,,,,,,,,,,,,,,,,,,,,,,,,,,,,,005,001,2023-11-16_14h12.06.201,ETproject_Chi_2023.1.1,2023.1.1,60.050250050874325,
15,Month,六月,九月 ,,Hori,late,right,image/Chi_late.png,"[-0.4, 0]","[0.4, 0]",3,congruent,,,,,,,,,,,,,,,,,,,,,,,,,,,,,,,,,,,,,,0,17,17,42,,,,,,,,,,,,,,,,,,,,,,,,,,,,,,839.0113672000007,1.0147818999976153,840.0214959000004,840.105101299996,840.9046906000003,841.0046759999968,841.0046759999968,841.0046759999968,right,1,4.5754014999984065,,,,,,,,,,,,,,,,,,,,,,,,,,,,,,,,,,,,,005,001,2023-11-16_14h12.06.201,ETproject_Chi_2023.1.1,2023.1.1,60.050250050874325,
27,Month,五月,六月,,Vert,early,up,image/Chi_early.png,"[0, 0.4]","[0, -0.4]",1,congruent,,,,,,,,,,,,,,,,,,,,,,,,,,,,,,,,,,,,,,0,18,18,48,,,,,,,,,,,,,,,,,,,,,,,,,,,,,,845.6175425999973,1.0103426999994554,846.619669599997,846.7028589999973,847.5025397999998,847.6026635000017,847.6026635000017,847.6026635000017,up,1,1.015824000001885,,,,,,,,,,,,,,,,,,,,,,,,,,,,,,,,,,,,,005,001,2023-11-16_14h12.06.201,ETproject_Chi_2023.1.1,2023.1.1,60.050250050874325,
111,Week,星期一,星期四,,Vert,early,up,image/Chi_early.png,"[0, 0.4]","[0, -0.4]",3,congruent,,,,,,,,,,,,,,,,,,,,,,,,,,,,,,,,,,,,,,0,19,19,16,,,,,,,,,,,,,,,,,,,,,,,,,,,,,,848.6408699000021,1.0141113999998197,849.6517569999996,849.7351000999915,850.5348923999991,850.6349773999973,850.6349773999973,850.6349773999973,up,1,1.2404650000098627,,,,,,,,,,,,,,,,,,,,,,,,,,,,,,,,,,,,,005,001,2023-11-16_14h12.06.201,ETproject_Chi_2023.1.1,2023.1.1,60.050250050874325,
149,Week,星期六,星期四,,Vert,late,up,image/Chi_late.png,"[0, 0.4]","[0, -0.4]",2,incongruent,,,,,,,,,,,,,,,,,,,,,,,,,,,,,,,,,,,,,,0,20,20,10,,,,,,,,,,,,,,,,,,,,,,,,,,,,,,851.9113478999934,1.0156735999917146,852.9173852999957,853.0007278999983,853.8005032999936,853.900727100001,853.900727100001,853.900727100001,up,1,2.4388605000131065,,,,,,,,,,,,,,,,,,,,,,,,,,,,,,,,,,,,,005,001,2023-11-16_14h12.06.201,ETproject_Chi_2023.1.1,2023.1.1,60.050250050874325,
67,Month,七月,四月,,Vert,late,up,image/Chi_late.png,"[0, 0.4]","[0, -0.4]",3,incongruent,,,,,,,,,,,,,,,,,,,,,,,,,,,,,,,,,,,,,,0,21,21,6,,,,,,,,,,,,,,,,,,,,,,,,,,,,,,856.3748147000006,1.0118024999974295,857.3826947000052,857.4660080000031,858.2658266999933,858.3657745999953,858.3657745999953,858.3657745999953,up,1,0.9965334000007715,,,,,,,,,,,,,,,,,,,,,,,,,,,,,,,,,,,,,005,001,2023-11-16_14h12.06.201,ETproject_Chi_2023.1.1,2023.1.1,60.050250050874325,
135,Week,星期日,星期四,,Hori,late,left,image/Chi_late.png,"[-0.4, 0]","[0.4, 0]",3,incongruent,,,,,,,,,,,,,,,,,,,,,,,,,,,,,,,,,,,,,,0,22,22,12,,,,,,,,,,,,,,,,,,,,,,,,,,,,,,859.3889838000032,1.0130941000097664,860.3983605999965,860.4814900999918,861.2812933999958,861.3814570999966,861.3814570999966,861.3814570999966,left,1,0.8852595000062138,,,,,,,,,,,,,,,,,,,,,,,,,,,,,,,,,,,,,005,001,2023-11-16_14h12.06.201,ETproject_Chi_2023.1.1,2023.1.1,60.050250050874325,
17,Month,一月,五月,,Vert,early,up,image/Chi_early.png,"[0, 0.4]","[0, -0.4]",4,congruent,,,,,,,,,,,,,,,,,,,,,,,,,,,,,,,,,,,,,,0,23,23,35,,,,,,,,,,,,,,,,,,,,,,,,,,,,,,862.3130807999987,1.012086000002455,863.3139847999992,863.3972760000033,864.1971197999956,864.2970827999961,864.2970827999961,864.2970827999961,up,1,1.345920899999328,,,,,,,,,,,,,,,,,,,,,,,,,,,,,,,,,,,,,005,001,2023-11-16_14h12.06.201,ETproject_Chi_2023.1.1,2023.1.1,60.050250050874325,
79,Month,三月,二月,,Vert,late,up,image/Chi_late.png,"[0, 0.4]","[0, -0.4]",1,incongruent,,,,,,,,,,,,,,,,,,,,,,,,,,,,,,,,,,,,,,0,24,24,8,,,,,,,,,,,,,,,,,,,,,,,,,,,,,,865.6738463999936,1.0126930000114953,866.6796017000015,866.7628070999926,867.5626229000045,867.6629322999943,867.6629322999943,867.6629322999943,up,1,1.6927171999996062,,,,,,,,,,,,,,,,,,,,,,,,,,,,,,,,,,,,,005,001,2023-11-16_14h12.06.201,ETproject_Chi_2023.1.1,2023.1.1,60.050250050874325,
120,Week,星期三 ,星期四,,Vert,late,down,image/Chi_late.png,"[0, 0.4]","[0, -0.4]",1,congruent,,,,,,,,,,,,,,,,,,,,,,,,,,,,,,,,,,,,,,0,25,25,46,,,,,,,,,,,,,,,,,,,,,,,,,,,,,,869.3828047999996,0.9991530000115745,870.395030899992,870.4783356999978,871.2780569000024,871.3780428000027,871.3780428000027,871.3780428000027,None,0,,,,,,,,,,,,,,,,,,,,,,,,,,,,,,,,,,,,,,005,001,2023-11-16_14h12.06.201,ETproject_Chi_2023.1.1,2023.1.1,60.050250050874325,
29,Month,二月,五月,,Vert,late,down,image/Chi_late.png,"[0, 0.4]","[0, -0.4]",3,congruent,,,,,,,,,,,,,,,,,,,,,,,,,,,,,,,,,,,,,,0,26,26,14,,,,,,,,,,,,,,,,,,,,,,,,,,,,,,876.4028850000032,1.0133153000060702,877.409328099995,877.4760328999982,878.2758562999952,878.3757200999971,878.3757200999971,878.3757200999971,down,1,1.04356390000612,,,,,,,,,,,,,,,,,,,,,,,,,,,,,,,,,,,,,005,001,2023-11-16_14h12.06.201,ETproject_Chi_2023.1.1,2023.1.1,60.050250050874325,
74,Month,六月,四月,,Vert,late,up,image/Chi_late.png,"[0, 0.4]","[0, -0.4]",2,incongruent,,,,,,,,,,,,,,,,,,,,,,,,,,,,,,,,,,,,,,0,27,27,27,,,,,,,,,,,,,,,,,,,,,,,,,,,,,,879.4499560999975,1.0118354000005638,880.4582393000019,880.5417209000007,881.3413626999973,881.4413714999973,881.4413714999973,881.4413714999973,up,1,0.8904409999959171,,,,,,,,,,,,,,,,,,,,,,,,,,,,,,,,,,,,,005,001,2023-11-16_14h12.06.201,ETproject_Chi_2023.1.1,2023.1.1,60.050250050874325,
28,Month,一月,四月,,Vert,late,down,image/Chi_late.png,"[0, 0.4]","[0, -0.4]",3,congruent,,,,,,,,,,,,,,,,,,,,,,,,,,,,,,,,,,,,,,0,28,28,9,,,,,,,,,,,,,,,,,,,,,,,,,,,,,,882.3663246999931,1.0112970000045607,883.374129799995,883.4576233999978,884.2571762000007,884.3571614999964,884.3571614999964,884.3571614999964,down,1,1.0064058999996632,,,,,,,,,,,,,,,,,,,,,,,,,,,,,,,,,,,,,005,001,2023-11-16_14h12.06.201,ETproject_Chi_2023.1.1,2023.1.1,60.050250050874325,
56,Month,五月,二月,,Vert,early,down,image/Chi_early.png,"[0, 0.4]","[0, -0.4]",3,incongruent,,,,,,,,,,,,,,,,,,,,,,,,,,,,,,,,,,,,,,0,29,29,3,,,,,,,,,,,,,,,,,,,,,,,,,,,,,,886.4027758000011,1.0143263999925693,887.4061378000042,887.4895123000024,888.288994100003,888.3890460999974,888.3890460999974,888.3890460999974,down,1,1.014081300003454,,,,,,,,,,,,,,,,,,,,,,,,,,,,,,,,,,,,,005,001,2023-11-16_14h12.06.201,ETproject_Chi_2023.1.1,2023.1.1,60.050250050874325,
16,Month,五月,六月,,Hori,late,right,image/Chi_late.png,"[-0.4, 0]","[0.4, 0]",1,congruent,,,,,,,,,,,,,,,,,,,,,,,,,,,,,,,,,,,,,,0,30,30,32,,,,,,,,,,,,,,,,,,,,,,,,,,,,,,889.4319433999917,1.0130786999943666,890.4384744999988,890.5219393000007,891.3216283999936,891.4214896000049,891.4214896000049,891.4214896000049,right,1,1.1010859999951208,,,,,,,,,,,,,,,,,,,,,,,,,,,,,,,,,,,,,005,001,2023-11-16_14h12.06.201,ETproject_Chi_2023.1.1,2023.1.1,60.050250050874325,
100,Week,星期四,星期六,,Hori,early,left,image/Chi_early.png,"[-0.4, 0]","[0.4, 0]",2,congruent,,,,,,,,,,,,,,,,,,,,,,,,,,,,,,,,,,,,,,0,31,31,11,,,,,,,,,,,,,,,,,,,,,,,,,,,,,,892.5680606999958,1.011840299994219,893.5706495999912,893.6540553999948,894.4539633999957,894.5537224,894.5537224,894.5537224,None,0,,,,,,,,,,,,,,,,,,,,,,,,,,,,,,,,,,,,,,005,001,2023-11-16_14h12.06.201,ETproject_Chi_2023.1.1,2023.1.1,60.050250050874325,
44,Month,八月,四月,,Hori,late,left,image/Chi_late.png,"[-0.4, 0]","[0.4, 0]",4,incongruent,,,,,,,,,,,,,,,,,,,,,,,,,,,,,,,,,,,,,,0,32,32,40,,,,,,,,,,,,,,,,,,,,,,,,,,,,,,899.5754148999986,1.0096120999951381,900.5850798000029,900.6516393000056,901.451390400005,901.5512811999943,901.5512811999943,901.5512811999943,left,1,1.3720186999998987,,,,,,,,,,,,,,,,,,,,,,,,,,,,,,,,,,,,,005,001,2023-11-16_14h12.06.201,ETproject_Chi_2023.1.1,2023.1.1,60.050250050874325,
74,Month,九月 ,八月,,Vert,early,down,image/Chi_early.png,"[0, 0.4]","[0, -0.4]",1,incongruent,,,,,,,,,,,,,,,,,,,,,,,,,,,,,,,,,,,,,,0,33,33,38,,,,,,,,,,,,,,,,,,,,,,,,,,,,,,902.9655962999968,1.0110754000052111,903.967496600002,904.0506591000012,904.8503516999917,904.9502834000014,904.9502834000014,904.9502834000014,down,1,1.0452597000112291,,,,,,,,,,,,,,,,,,,,,,,,,,,,,,,,,,,,,005,001,2023-11-16_14h12.06.201,ETproject_Chi_2023.1.1,2023.1.1,60.050250050874325,
39,Month,六月,三月,,Hori,early,right,image/Chi_early.png,"[-0.4, 0]","[0.4, 0]",3,incongruent,,,,,,,,,,,,,,,,,,,,,,,,,,,,,,,,,,,,,,0,34,34,26,,,,,,,,,,,,,,,,,,,,,,,,,,,,,,906.0254064000037,1.011169900011737,907.0329346999933,907.1163256,907.9159520999965,908.0159665999963,908.0159665999963,908.0159665999963,left,0,1.0023442999954568,,,,,,,,,,,,,,,,,,,,,,,,,,,,,,,,,,,,,005,001,2023-11-16_14h12.06.201,ETproject_Chi_2023.1.1,2023.1.1,60.050250050874325,
18,Month,二月,六月,,Vert,early,up,image/Chi_early.png,"[0, 0.4]","[0, -0.4]",4,congruent,,,,,,,,,,,,,,,,,,,,,,,,,,,,,,,,,,,,,,0,35,35,25,,,,,,,,,,,,,,,,,,,,,,,,,,,,,,909.0585645999963,1.0103992999938782,910.0653194000042,910.1486567999964,910.9482691000012,911.048279900002,911.048279900002,911.048279900002,up,1,3.1137480000033975,,,,,,,,,,,,,,,,,,,,,,,,,,,,,,,,,,,,,005,001,2023-11-16_14h12.06.201,ETproject_Chi_2023.1.1,2023.1.1,60.050250050874325,
3,Month,三月,四月,,Hori,early,left,image/Chi_early.png,"[-0.4, 0]","[0.4, 0]",1,congruent,,,,,,,,,,,,,,,,,,,,,,,,,,,,,,,,,,,,,,0,36,36,19,,,,,,,,,,,,,,,,,,,,,,,,,,,,,,914.1911458999966,1.009986300006858,915.1968792999978,915.2804537000047,916.0801871000003,916.1801531999954,916.1801531999954,916.1801531999954,left,1,0.7675167999987025,,,,,,,,,,,,,,,,,,,,,,,,,,,,,,,,,,,,,005,001,2023-11-16_14h12.06.201,ETproject_Chi_2023.1.1,2023.1.1,60.050250050874325,
