No,Category,earlier_stim,later_stim,conguency,orientation,instruction,corr_resp,Instruction_stim,early_position,late_position,distance,congruency,Image,Qustion,Response,CorrAns,Path,prac_block.thisRepN,prac_block.thisTrialN,prac_block.thisN,prac_block.thisIndex,trials.thisRepN,trials.thisTrialN,trials.thisN,trials.thisIndex,block1.thisRepN,block1.thisTrialN,block1.thisN,block1.thisIndex,break1.thisRepN,break1.thisTrialN,break1.thisN,break1.thisIndex,block2.thisRepN,block2.thisTrialN,block2.thisN,block2.thisIndex,break2.thisRepN,break2.thisTrialN,break2.thisN,break2.thisIndex,block3.thisRepN,block3.thisTrialN,block3.thisN,block3.thisIndex,break3.thisRepN,break3.thisTrialN,break3.thisN,break3.thisIndex,block4.thisRepN,block4.thisTrialN,block4.thisN,block4.thisIndex,intro_1.started,intro_1.stopped,intro_2.started,intro2_resp.started,intro2_resp.keys,intro2_resp.rt,Intro_3.started,intro3_resp.started,intro3_resp.keys,intro3_resp.rt,pracintro.started,pracintro_resp.started,pracintro_resp.keys,pracintro_resp.rt,image.started,early.started,RESP.started,late.started,pracfeedback.started,pracfeedback.stopped,image.stopped,text_4.started,text_4.stopped,text_5.started,baselinerecord.started,intro_5.started,intro5_resp.started,intro5_resp.keys,intro5_resp.rt,main_image_2.started,etRecord.started,main_image_2.stopped,fix.started,fix.stopped,main_early.started,ct_resp.started,main_late.started,ct_resp.keys,ct_resp.corr,ct_resp.rt,intro.started,intro2_resp_2.started,intro2_resp_2.keys,intro2_resp_2.rt,fengjing.started,text.started,fengjing.stopped,text.stopped,key_resp.started,text_2.started,text_3.started,key_resp.keys,key_resp.corr,key_resp.rt,intro_6.started,intro5_resp_2.started,intro5_resp_2.keys,intro5_resp_2.rt,intro_3.started,intro2_resp_3.started,intro2_resp_3.keys,intro2_resp_3.rt,intro_7.started,intro2_resp_5.started,intro2_resp_5.keys,intro2_resp_5.rt,intro_4.started,intro2_resp_4.started,intro2_resp_4.keys,intro2_resp_4.rt,intro_8.started,intro2_resp_6.started,intro2_resp_6.keys,intro2_resp_6.rt,theend.started,theend.stopped,participant,session,date,expName,psychopyVersion,frameRate,
,,,,,,,,,,,,,,,,,,,,,,,,,,,,,,,,,,,,,,,,,,,,,,,,,,,,,,112.16712059998827,114.17579609999666,114.17579609999666,114.17579609999666,space,8.467441400003736,,,,,,,,,,,,,,,,,,,,,,,,,,,,,,,,,,,,,,,,,,,,,,,,,,,,,,,,,,,,,,,,,,,,,,,006,001,2023-11-16_14h55.58.720,ETproject_Chi_2023.1.1,2023.1.1,59.850851677642055,
,,,,,,,,,,,,,,,,,,,,,,,,,,,,,,,,,,,,,,,,,,,,,,,,,,,,,,,,,,,,122.67313589999685,122.67313589999685,space,43.69727760000387,,,,,,,,,,,,,,,,,,,,,,,,,,,,,,,,,,,,,,,,,,,,,,,,,,,,,,,,,,,,,,,,,,,006,001,2023-11-16_14h55.58.720,ETproject_Chi_2023.1.1,2023.1.1,59.850851677642055,
2,practice,星期五,星期六,congruent,Hori,late,right,image/Chi_late.png,"[-0.4, 0]","[0.4, 0]",,,,,,,,0,0,0,0,0,0,0,1,,,,,,,,,,,,,,,,,,,,,,,,,,,,,,,,,,,,,,,166.4393440999993,166.4393440999993,space,4.2840492999966955,170.80494859999453,171.75642959999095,171.75642959999095,171.75642959999095,176.76704069999687,,,,,,,,,,,,,,,,,,,,,,,,,,,,,,,,,,,,,,,,,,,,,,,,,,,,,,,,,,006,001,2023-11-16_14h55.58.720,ETproject_Chi_2023.1.1,2023.1.1,59.850851677642055,
1,practice,星期三 ,星期四,congruent,Hori,early,left,image/Chi_early.png,"[-0.4, 0]","[0.4, 0]",,,,,,,,0,0,0,0,0,1,1,0,,,,,,,,,,,,,,,,,,,,,,,,,,,,,,,,,,,,,,,,,,,177.76289689999248,178.75434879999375,178.75434879999375,178.75434879999375,180.33716709999135,181.3447310999909,,,,,,,,,,,,,,,,,,,,,,,,,,,,,,,,,,,,,,,,,,,,,,,,,,,,,,,,,006,001,2023-11-16_14h55.58.720,ETproject_Chi_2023.1.1,2023.1.1,59.850851677642055,
8,practice,星期六,星期五,incongruent,Vert,late,up,image/Chi_late.png,"[0, 0.4]","[0, -0.4]",,,,,,,,0,0,0,0,0,2,2,7,,,,,,,,,,,,,,,,,,,,,,,,,,,,,,,,,,,,,,,,,,,181.3447310999909,182.35287940000126,182.35287940000126,182.35287940000126,183.55281879998802,184.55647519999184,,,,,,,,,,,,,,,,,,,,,,,,,,,,,,,,,,,,,,,,,,,,,,,,,,,,,,,,,006,001,2023-11-16_14h55.58.720,ETproject_Chi_2023.1.1,2023.1.1,59.850851677642055,
7,practice,星期三 ,星期二,incongruent,Vert,early,down,image/Chi_early.png,"[0, 0.4]","[0, -0.4]",,,,,,,,0,0,0,0,0,3,3,6,,,,,,,,,,,,,,,,,,,,,,,,,,,,,,,,,,,,,,,,,,,184.55647519999184,185.56855229999928,185.56855229999928,185.56855229999928,186.51844379999966,187.51926000000094,,,,,,,,,,,,,,,,,,,,,,,,,,,,,,,,,,,,,,,,,,,,,,,,,,,,,,,,,006,001,2023-11-16_14h55.58.720,ETproject_Chi_2023.1.1,2023.1.1,59.850851677642055,
3,practice,星期一,星期二,congruent,Vert,early,up,image/Chi_early.png,"[0, 0.4]","[0, -0.4]",,,,,,,,0,0,0,0,0,4,4,2,,,,,,,,,,,,,,,,,,,,,,,,,,,,,,,,,,,,,,,,,,,187.51926000000094,188.51763740000024,188.51763740000024,188.51763740000024,189.4174415000016,190.41820889999508,188.51763740000024,,,,,,,,,,,,,,,,,,,,,,,,,,,,,,,,,,,,,,,,,,,,,,,,,,,,,,,,006,001,2023-11-16_14h55.58.720,ETproject_Chi_2023.1.1,2023.1.1,59.850851677642055,
5,practice,星期二,星期一,incongruent,Hori,early,right,image/Chi_early.png,"[-0.4, 0]","[0.4, 0]",,,,,,,,0,0,0,0,0,5,5,4,,,,,,,,,,,,,,,,,,,,,,,,,,,,,,,,,,,,,,,,,,,190.41820889999508,191.41666419999092,191.41666419999092,191.41666419999092,192.3164906999882,193.32020959998772,191.41666419999092,,,,,,,,,,,,,,,,,,,,,,,,,,,,,,,,,,,,,,,,,,,,,,,,,,,,,,,,006,001,2023-11-16_14h55.58.720,ETproject_Chi_2023.1.1,2023.1.1,59.850851677642055,
4,practice,星期日,星期一,congruent,Vert,late,down,image/Chi_late.png,"[0, 0.4]","[0, -0.4]",,,,,,,,0,0,0,0,0,6,6,3,,,,,,,,,,,,,,,,,,,,,,,,,,,,,,,,,,,,,,,,,,,193.32020959998772,194.3323931999912,194.3323931999912,194.3323931999912,196.29865019999852,197.29992140000104,,,,,,,,,,,,,,,,,,,,,,,,,,,,,,,,,,,,,,,,,,,,,,,,,,,,,,,,,006,001,2023-11-16_14h55.58.720,ETproject_Chi_2023.1.1,2023.1.1,59.850851677642055,
6,practice,星期四,星期三 ,incongruent,Hori,late,left,image/Chi_late.png,"[-0.4, 0]","[0.4, 0]",,,,,,,,0,0,0,0,0,7,7,5,,,,,,,,,,,,,,,,,,,,,,,,,,,,,,,,,,,,,,,,,,,197.29992140000104,198.31429650000064,198.31429650000064,198.31429650000064,199.7640348999994,200.7636574999924,,,,,,,,,,,,,,,,,,,,,,,,,,,,,,,,,,,,,,,,,,,,,,,,,,,,,,,,,006,001,2023-11-16_14h55.58.720,ETproject_Chi_2023.1.1,2023.1.1,59.850851677642055,
,,,,,,,,,,,,,,,,,,0,0,0,0,,,,,,,,,,,,,,,,,,,,,,,,,,,,,,,,,,,,,,,,,,,,,,,,,,,,,,,,,,,,,,,,,,,,,,,,,,,,,,,,,,,,,,,,,,,,,,,,,,,,,,,,,,,,,006,001,2023-11-16_14h55.58.720,ETproject_Chi_2023.1.1,2023.1.1,59.850851677642055,
,,,,,,,,,,,,,,,,,,,,,,,,,,,,,,,,,,,,,,,,,,,,,,,,,,,,,,,,,,,,,,,,,,,,,,,,,,,200.7636574999924,203.76258309998957,203.76258309998957,3.0147880999866175,208.76559089998773,208.76559089998773,space,2.0933301000040956,,,,,,,,,,,,,,,,,,,,,,,,,,,,,,,,,,,,,,,,,,,,,,,,006,001,2023-11-16_14h55.58.720,ETproject_Chi_2023.1.1,2023.1.1,59.850851677642055,
107,Week,星期四,星期六,,Hori,late,right,image/Chi_late.png,"[-0.4, 0]","[0.4, 0]",2,congruent,,,,,,,,,,,,,,0,0,0,16,,,,,,,,,,,,,,,,,,,,,,,,,,,,,,,,,,,,,,,,,,,,,,,,,,,,,,210.89877980000165,0.9991750000044703,211.9098692999978,211.97659310000017,212.77621050000016,212.87620659999084,212.87620659999084,212.87620659999084,right,1,0.9342405999923358,,,,,,,,,,,,,,,,,,,,,,,,,,,,,,,,,,,,,006,001,2023-11-16_14h55.58.720,ETproject_Chi_2023.1.1,2023.1.1,59.850851677642055,
120,Week,星期三 ,星期六,,Vert,late,down,image/Chi_late.png,"[0, 0.4]","[0, -0.4]",3,congruent,,,,,,,,,,,,,,0,1,1,34,,,,,,,,,,,,,,,,,,,,,,,,,,,,,,,,,,,,,,,,,,,,,,,,,,,,,,213.84765809999953,1.015570999996271,214.85884119999537,214.94215319999785,215.74192380000022,215.8419326000003,215.8419326000003,215.8419326000003,down,1,1.0174756000051275,,,,,,,,,,,,,,,,,,,,,,,,,,,,,,,,,,,,,006,001,2023-11-16_14h55.58.720,ETproject_Chi_2023.1.1,2023.1.1,59.850851677642055,
75,Month,十月 ,九月 ,,Vert,early,down,image/Chi_early.png,"[0, 0.4]","[0, -0.4]",1,incongruent,,,,,,,,,,,,,,0,2,2,1,,,,,,,,,,,,,,,,,,,,,,,,,,,,,,,,,,,,,,,,,,,,,,,,,,,,,,216.9184760999924,1.0146728000108851,217.92450929999177,217.9912304999889,218.79093959998863,218.89093969999522,218.89093969999522,218.89093969999522,down,1,1.1362548999895807,,,,,,,,,,,,,,,,,,,,,,,,,,,,,,,,,,,,,006,001,2023-11-16_14h55.58.720,ETproject_Chi_2023.1.1,2023.1.1,59.850851677642055,
24,Month,四月,六月,,Vert,early,up,image/Chi_early.png,"[0, 0.4]","[0, -0.4]",2,congruent,,,,,,,,,,,,,,0,3,3,8,,,,,,,,,,,,,,,,,,,,,,,,,,,,,,,,,,,,,,,,,,,,,,,,,,,,,,220.06226149998838,1.0146551000070758,221.07346309999411,221.15688029999728,221.95652849999897,222.05651709999074,222.05651709999074,222.05651709999074,up,1,0.9225314000068465,,,,,,,,,,,,,,,,,,,,,,,,,,,,,,,,,,,,,006,001,2023-11-16_14h55.58.720,ETproject_Chi_2023.1.1,2023.1.1,59.850851677642055,
6,Month,六月,十月 ,,Hori,early,left,image/Chi_early.png,"[-0.4, 0]","[0.4, 0]",4,congruent,,,,,,,,,,,,,,0,4,4,29,,,,,,,,,,,,,,,,,,,,,,,,,,,,,,,,,,,,,,,,,,,,,,,,,,,,,,223.01314849998744,1.0145864999940386,224.02252749999752,224.10589429999527,224.90558099999907,225.00559799998882,225.00559799998882,225.00559799998882,left,1,0.8050599999987753,,,,,,,,,,,,,,,,,,,,,,,,,,,,,,,,,,,,,006,001,2023-11-16_14h55.58.720,ETproject_Chi_2023.1.1,2023.1.1,59.850851677642055,
34,Month,七月,十月 ,,Vert,late,down,image/Chi_late.png,"[0, 0.4]","[0, -0.4]",3,congruent,,,,,,,,,,,,,,0,5,5,11,,,,,,,,,,,,,,,,,,,,,,,,,,,,,,,,,,,,,,,,,,,,,,,,,,,,,,225.8548252999899,1.0123447000078158,226.85498319999897,226.9381946999929,227.7379782999924,227.8380824999913,227.8380824999913,227.8380824999913,down,1,0.7498450999992201,,,,,,,,,,,,,,,,,,,,,,,,,,,,,,,,,,,,,006,001,2023-11-16_14h55.58.720,ETproject_Chi_2023.1.1,2023.1.1,59.850851677642055,
148,Week,星期六,星期三 ,,Vert,late,up,image/Chi_late.png,"[0, 0.4]","[0, -0.4]",3,incongruent,,,,,,,,,,,,,,0,6,6,26,,,,,,,,,,,,,,,,,,,,,,,,,,,,,,,,,,,,,,,,,,,,,,,,,,,,,,228.62023499999486,1.0097190999949817,229.62071899999864,229.70398649999697,230.50374909999664,230.60375779999595,230.60375779999595,230.60375779999595,up,1,0.8305220000038389,,,,,,,,,,,,,,,,,,,,,,,,,,,,,,,,,,,,,006,001,2023-11-16_14h55.58.720,ETproject_Chi_2023.1.1,2023.1.1,59.850851677642055,
12,Week,星期日,星期四,,Vert,late,up,image/Chi_late.png,"[0, 0.4]","[0, -0.4]",3,incongruent,,,,,,,,,,,,,,0,7,7,9,,,,,,,,,,,,,,,,,,,,,,,,,,,,,,,,,,,,,,,,,,,,,,,,,,,,,,231.46528629999375,1.0095589999982622,232.4697618999926,232.55298629999743,233.35291499999585,233.452879199991,233.452879199991,233.452879199991,up,1,0.8540699000004679,,,,,,,,,,,,,,,,,,,,,,,,,,,,,,,,,,,,,006,001,2023-11-16_14h55.58.720,ETproject_Chi_2023.1.1,2023.1.1,59.850851677642055,
38,Month,八月,十月 ,,Vert,late,down,image/Chi_late.png,"[0, 0.4]","[0, -0.4]",2,congruent,,,,,,,,,,,,,,0,8,8,37,,,,,,,,,,,,,,,,,,,,,,,,,,,,,,,,,,,,,,,,,,,,,,,,,,,,,,234.35120520000055,1.0144910000090022,235.35246859998733,235.4353296999907,236.23526760000095,236.33514389999618,236.33514389999618,236.33514389999618,down,1,1.059316700004274,,,,,,,,,,,,,,,,,,,,,,,,,,,,,,,,,,,,,006,001,2023-11-16_14h55.58.720,ETproject_Chi_2023.1.1,2023.1.1,59.850851677642055,
29,Month,七月,八月,,Vert,early,up,image/Chi_early.png,"[0, 0.4]","[0, -0.4]",1,congruent,,,,,,,,,,,,,,0,9,9,2,,,,,,,,,,,,,,,,,,,,,,,,,,,,,,,,,,,,,,,,,,,,,,,,,,,,,,237.42742629999702,1.0153713000036078,238.43439429999853,238.51775879999332,239.31732619999093,239.4174090999877,239.4174090999877,239.4174090999877,up,1,0.8092589000007138,,,,,,,,,,,,,,,,,,,,,,,,,,,,,,,,,,,,,006,001,2023-11-16_14h55.58.720,ETproject_Chi_2023.1.1,2023.1.1,59.850851677642055,
78,Month,十月 ,八月,,Vert,late,up,image/Chi_late.png,"[0, 0.4]","[0, -0.4]",2,incongruent,,,,,,,,,,,,,,0,10,10,44,,,,,,,,,,,,,,,,,,,,,,,,,,,,,,,,,,,,,,,,,,,,,,,,,,,,,,240.26483780000126,1.0103223000041908,241.26686399999016,241.3501547999913,242.14988060000178,242.24987299999339,242.24987299999339,242.24987299999339,up,1,0.8410906999924919,,,,,,,,,,,,,,,,,,,,,,,,,,,,,,,,,,,,,006,001,2023-11-16_14h55.58.720,ETproject_Chi_2023.1.1,2023.1.1,59.850851677642055,
141,Week,星期五,星期三 ,,Vert,early,down,image/Chi_early.png,"[0, 0.4]","[0, -0.4]",2,incongruent,,,,,,,,,,,,,,0,11,11,15,,,,,,,,,,,,,,,,,,,,,,,,,,,,,,,,,,,,,,,,,,,,,,,,,,,,,,243.1344575999974,1.0115988000034122,244.14917999999307,244.21591600000102,245.01564489999146,245.11562549999508,245.11562549999508,245.11562549999508,down,1,0.8307176000089385,,,,,,,,,,,,,,,,,,,,,,,,,,,,,,,,,,,,,006,001,2023-11-16_14h55.58.720,ETproject_Chi_2023.1.1,2023.1.1,59.850851677642055,
106,Week,星期三 ,星期六,,Hori,late,right,image/Chi_late.png,"[-0.4, 0]","[0.4, 0]",3,congruent,,,,,,,,,,,,,,0,12,12,3,,,,,,,,,,,,,,,,,,,,,,,,,,,,,,,,,,,,,,,,,,,,,,,,,,,,,,245.97974359999353,1.0116668999980902,246.9817968999996,247.06499829998938,247.86466329998802,247.96470499999123,247.96470499999123,247.96470499999123,right,1,0.7338235000061104,,,,,,,,,,,,,,,,,,,,,,,,,,,,,,,,,,,,,006,001,2023-11-16_14h55.58.720,ETproject_Chi_2023.1.1,2023.1.1,59.850851677642055,
136,Week,星期日,星期五,,Hori,late,left,image/Chi_late.png,"[-0.4, 0]","[0.4, 0]",2,incongruent,,,,,,,,,,,,,,0,13,13,17,,,,,,,,,,,,,,,,,,,,,,,,,,,,,,,,,,,,,,,,,,,,,,,,,,,,,,248.7359446999908,0.9991860999871278,249.74745559999428,249.83070169998973,250.63041749999684,250.73043919999327,250.73043919999327,250.73043919999327,left,1,0.8650667000038084,,,,,,,,,,,,,,,,,,,,,,,,,,,,,,,,,,,,,006,001,2023-11-16_14h55.58.720,ETproject_Chi_2023.1.1,2023.1.1,59.850851677642055,
150,Week,星期日,星期五,,Vert,late,up,image/Chi_late.png,"[0, 0.4]","[0, -0.4]",2,incongruent,,,,,,,,,,,,,,0,14,14,46,,,,,,,,,,,,,,,,,,,,,,,,,,,,,,,,,,,,,,,,,,,,,,,,,,,,,,251.62068229999568,1.0123391000088304,252.62975870000082,252.71308039998985,253.512745,253.61286090000067,253.61286090000067,253.61286090000067,up,1,0.8858457000023918,,,,,,,,,,,,,,,,,,,,,,,,,,,,,,,,,,,,,006,001,2023-11-16_14h55.58.720,ETproject_Chi_2023.1.1,2023.1.1,59.850851677642055,
150,Week,星期六,星期五,,Vert,late,up,image/Chi_late.png,"[0, 0.4]","[0, -0.4]",1,incongruent,,,,,,,,,,,,,,0,15,15,23,,,,,,,,,,,,,,,,,,,,,,,,,,,,,,,,,,,,,,,,,,,,,,,,,,,,,,254.5426892999967,1.0107353000057628,255.54558589999215,255.62876749999123,256.42853489999834,256.52856859999883,256.52856859999883,256.52856859999883,up,1,0.9063462000049185,,,,,,,,,,,,,,,,,,,,,,,,,,,,,,,,,,,,,006,001,2023-11-16_14h55.58.720,ETproject_Chi_2023.1.1,2023.1.1,59.850851677642055,
112,Week,星期二,星期五,,Vert,early,up,image/Chi_early.png,"[0, 0.4]","[0, -0.4]",3,congruent,,,,,,,,,,,,,,0,16,16,24,,,,,,,,,,,,,,,,,,,,,,,,,,,,,,,,,,,,,,,,,,,,,,,,,,,,,,258.4718540999893,1.0153812000062317,259.47751539999445,259.56083699999726,260.3605114999955,260.46055889999843,260.46055889999843,260.46055889999843,up,1,0.8304700000153389,,,,,,,,,,,,,,,,,,,,,,,,,,,,,,,,,,,,,006,001,2023-11-16_14h55.58.720,ETproject_Chi_2023.1.1,2023.1.1,59.850851677642055,
63,Month,十二月,九月 ,,Vert,early,down,image/Chi_early.png,"[0, 0.4]","[0, -0.4]",3,incongruent,,,,,,,,,,,,,,0,17,17,22,,,,,,,,,,,,,,,,,,,,,,,,,,,,,,,,,,,,,,,,,,,,,,,,,,,,,,261.31612419999146,1.0151882999925874,262.32656699999643,262.4099247999984,263.20962899998995,263.309546199991,263.309546199991,263.309546199991,down,1,0.9968841999943834,,,,,,,,,,,,,,,,,,,,,,,,,,,,,,,,,,,,,006,001,2023-11-16_14h55.58.720,ETproject_Chi_2023.1.1,2023.1.1,59.850851677642055,
143,Week,星期六,星期五,,Vert,early,down,image/Chi_early.png,"[0, 0.4]","[0, -0.4]",1,incongruent,,,,,,,,,,,,,,0,18,18,36,,,,,,,,,,,,,,,,,,,,,,,,,,,,,,,,,,,,,,,,,,,,,,,,,,,,,,264.3360098999983,1.0139217999967514,265.3422336999938,265.42559159999655,266.225319899997,266.3251969999983,266.3251969999983,266.3251969999983,down,1,0.8615138000022853,,,,,,,,,,,,,,,,,,,,,,,,,,,,,,,,,,,,,006,001,2023-11-16_14h55.58.720,ETproject_Chi_2023.1.1,2023.1.1,59.850851677642055,
114,Week,星期四,星期日,,Vert,early,up,image/Chi_early.png,"[0, 0.4]","[0, -0.4]",3,congruent,,,,,,,,,,,,,,0,19,19,12,,,,,,,,,,,,,,,,,,,,,,,,,,,,,,,,,,,,,,,,,,,,,,,,,,,,,,268.214218299996,1.0153021000005538,269.22434259999136,269.3076369999908,270.10730550000153,270.20731749999686,270.20731749999686,270.20731749999686,up,1,0.859137199993711,,,,,,,,,,,,,,,,,,,,,,,,,,,,,,,,,,,,,006,001,2023-11-16_14h55.58.720,ETproject_Chi_2023.1.1,2023.1.1,59.850851677642055,
97,Week,星期一,星期四,,Hori,early,left,image/Chi_early.png,"[-0.4, 0]","[0.4, 0]",3,congruent,,,,,,,,,,,,,,0,20,20,20,,,,,,,,,,,,,,,,,,,,,,,,,,,,,,,,,,,,,,,,,,,,,,,,,,,,,,271.10146130000066,1.0103327999968315,272.1067119999934,272.1900459999888,272.9896937000012,273.0896880999935,273.0896880999935,273.0896880999935,left,1,0.9928233999962686,,,,,,,,,,,,,,,,,,,,,,,,,,,,,,,,,,,,,006,001,2023-11-16_14h55.58.720,ETproject_Chi_2023.1.1,2023.1.1,59.850851677642055,
24,Month,六月,九月 ,,Vert,early,up,image/Chi_early.png,"[0, 0.4]","[0, -0.4]",3,congruent,,,,,,,,,,,,,,0,21,21,33,,,,,,,,,,,,,,,,,,,,,,,,,,,,,,,,,,,,,,,,,,,,,,,,,,,,,,274.11290349999035,1.0155688999948325,275.122510199988,275.20569180000166,276.0057165999897,276.1055037999904,276.1055037999904,276.1055037999904,up,1,0.8249020000075689,,,,,,,,,,,,,,,,,,,,,,,,,,,,,,,,,,,,,006,001,2023-11-16_14h55.58.720,ETproject_Chi_2023.1.1,2023.1.1,59.850851677642055,
127,Week,星期五,星期三 ,,Hori,early,right,image/Chi_early.png,"[-0.4, 0]","[0.4, 0]",2,incongruent,,,,,,,,,,,,,,0,22,22,13,,,,,,,,,,,,,,,,,,,,,,,,,,,,,,,,,,,,,,,,,,,,,,,,,,,,,,276.97046129999217,1.0120535000023665,277.9716054999881,278.05481839999266,278.85464029999275,278.95477579999715,278.95477579999715,278.95477579999715,right,1,0.8878360000089742,,,,,,,,,,,,,,,,,,,,,,,,,,,,,,,,,,,,,006,001,2023-11-16_14h55.58.720,ETproject_Chi_2023.1.1,2023.1.1,59.850851677642055,
13,Month,四月,七月,,Hori,late,right,image/Chi_late.png,"[-0.4, 0]","[0.4, 0]",3,congruent,,,,,,,,,,,,,,0,23,23,41,,,,,,,,,,,,,,,,,,,,,,,,,,,,,,,,,,,,,,,,,,,,,,,,,,,,,,279.8894824000017,1.010437599994475,280.9039565999992,280.970587799995,281.77040679998754,281.87022169999545,281.87022169999545,281.87022169999545,right,1,1.0363176999962889,,,,,,,,,,,,,,,,,,,,,,,,,,,,,,,,,,,,,006,001,2023-11-16_14h55.58.720,ETproject_Chi_2023.1.1,2023.1.1,59.850851677642055,
132,Week,星期四,星期一,,Hori,late,left,image/Chi_late.png,"[-0.4, 0]","[0.4, 0]",3,incongruent,,,,,,,,,,,,,,0,24,24,19,,,,,,,,,,,,,,,,,,,,,,,,,,,,,,,,,,,,,,,,,,,,,,,,,,,,,,282.9458447999932,1.0125282000080915,283.95302859999356,284.03628039998875,284.8359505999979,284.9360309999902,284.9360309999902,284.9360309999902,left,1,1.5954074999899603,,,,,,,,,,,,,,,,,,,,,,,,,,,,,,,,,,,,,006,001,2023-11-16_14h55.58.720,ETproject_Chi_2023.1.1,2023.1.1,59.850851677642055,
126,Week,星期三 ,星期二,,Hori,early,right,image/Chi_early.png,"[-0.4, 0]","[0.4, 0]",1,incongruent,,,,,,,,,,,,,,0,25,25,25,,,,,,,,,,,,,,,,,,,,,,,,,,,,,,,,,,,,,,,,,,,,,,,,,,,,,,286.5662547999964,1.0130589999898802,287.56835319999664,287.65164989999903,288.45139099999506,288.55154799998854,288.55154799998854,288.55154799998854,right,1,1.1800613999948837,,,,,,,,,,,,,,,,,,,,,,,,,,,,,,,,,,,,,006,001,2023-11-16_14h55.58.720,ETproject_Chi_2023.1.1,2023.1.1,59.850851677642055,
125,Week,星期三 ,星期一,,Hori,early,right,image/Chi_early.png,"[-0.4, 0]","[0.4, 0]",2,incongruent,,,,,,,,,,,,,,0,26,26,5,,,,,,,,,,,,,,,,,,,,,,,,,,,,,,,,,,,,,,,,,,,,,,,,,,,,,,289.75835169998754,1.0137264000077266,290.7673240000004,290.85072339999897,291.6504142999911,291.75039869999455,291.75039869999455,291.75039869999455,right,1,0.7176221999980044,,,,,,,,,,,,,,,,,,,,,,,,,,,,,,,,,,,,,006,001,2023-11-16_14h55.58.720,ETproject_Chi_2023.1.1,2023.1.1,59.850851677642055,
62,Month,十月 ,六月,,Vert,late,up,image/Chi_late.png,"[0, 0.4]","[0, -0.4]",4,incongruent,,,,,,,,,,,,,,0,27,27,27,,,,,,,,,,,,,,,,,,,,,,,,,,,,,,,,,,,,,,,,,,,,,,,,,,,,,,292.5162854999944,1.0121355000010226,293.51633199999924,293.59983959999226,294.3993550999876,294.49958139999944,294.49958139999944,294.49958139999944,up,1,0.8393084999988787,,,,,,,,,,,,,,,,,,,,,,,,,,,,,,,,,,,,,006,001,2023-11-16_14h55.58.720,ETproject_Chi_2023.1.1,2023.1.1,59.850851677642055,
142,Week,星期五,星期四,,Vert,early,down,image/Chi_early.png,"[0, 0.4]","[0, -0.4]",1,incongruent,,,,,,,,,,,,,,0,28,28,0,,,,,,,,,,,,,,,,,,,,,,,,,,,,,,,,,,,,,,,,,,,,,,,,,,,,,,295.3819586999889,1.011942299999646,296.3821864999918,296.46547579999606,297.2653913999966,297.3651486999879,297.3651486999879,297.3651486999879,down,1,0.9982128999981796,,,,,,,,,,,,,,,,,,,,,,,,,,,,,,,,,,,,,006,001,2023-11-16_14h55.58.720,ETproject_Chi_2023.1.1,2023.1.1,59.850851677642055,
46,Month,四月,一月,,Hori,late,left,image/Chi_late.png,"[-0.4, 0]","[0.4, 0]",3,incongruent,,,,,,,,,,,,,,0,29,29,14,,,,,,,,,,,,,,,,,,,,,,,,,,,,,,,,,,,,,,,,,,,,,,,,,,,,,,298.3976186999935,1.011627200001385,299.39797789999284,299.4811186000006,300.2809263999952,300.38094979999005,300.38094979999005,300.38094979999005,left,1,0.8702058000053512,,,,,,,,,,,,,,,,,,,,,,,,,,,,,,,,,,,,,006,001,2023-11-16_14h55.58.720,ETproject_Chi_2023.1.1,2023.1.1,59.850851677642055,
1,Month,一月,二月 ,,Hori,early,left,image/Chi_early.png,"[-0.4, 0]","[0.4, 0]",1,congruent,,,,,,,,,,,,,,0,30,30,28,,,,,,,,,,,,,,,,,,,,,,,,,,,,,,,,,,,,,,,,,,,,,,,,,,,,,,301.2877717999945,0.99920839999686,302.29685549999704,302.38015529999393,303.1798903000017,303.2799221999885,303.2799221999885,303.2799221999885,left,1,0.5947755999950459,,,,,,,,,,,,,,,,,,,,,,,,,,,,,,,,,,,,,006,001,2023-11-16_14h55.58.720,ETproject_Chi_2023.1.1,2023.1.1,59.850851677642055,
98,Week,星期二,星期三 ,,Hori,early,left,image/Chi_early.png,"[-0.4, 0]","[0.4, 0]",1,congruent,,,,,,,,,,,,,,0,31,31,49,,,,,,,,,,,,,,,,,,,,,,,,,,,,,,,,,,,,,,,,,,,,,,,,,,,,,,303.905528999996,1.0106470000027912,304.9125558999949,304.996078199998,305.79561529999773,305.895841199992,305.895841199992,305.895841199992,left,1,0.9239737000025343,,,,,,,,,,,,,,,,,,,,,,,,,,,,,,,,,,,,,006,001,2023-11-16_14h55.58.720,ETproject_Chi_2023.1.1,2023.1.1,59.850851677642055,
34,Month,六月,二月,,Hori,early,right,image/Chi_early.png,"[-0.4, 0]","[0.4, 0]",4,incongruent,,,,,,,,,,,,,,0,32,32,21,,,,,,,,,,,,,,,,,,,,,,,,,,,,,,,,,,,,,,,,,,,,,,,,,,,,,,306.8539960999915,1.0115608000050997,307.8618327000004,307.94542139999976,308.74489979998907,308.84476469999936,308.84476469999936,308.84476469999936,right,1,0.8698136000020895,,,,,,,,,,,,,,,,,,,,,,,,,,,,,,,,,,,,,006,001,2023-11-16_14h55.58.720,ETproject_Chi_2023.1.1,2023.1.1,59.850851677642055,
77,Month,九月 ,七月,,Vert,late,up,image/Chi_late.png,"[0, 0.4]","[0, -0.4]",2,incongruent,,,,,,,,,,,,,,0,33,33,43,,,,,,,,,,,,,,,,,,,,,,,,,,,,,,,,,,,,,,,,,,,,,,,,,,,,,,309.7617196999927,1.0107893999957014,310.7607468999922,310.84406629999285,311.64378329999454,311.7437241000007,311.7437241000007,311.7437241000007,up,1,0.7789324000041233,,,,,,,,,,,,,,,,,,,,,,,,,,,,,,,,,,,,,006,001,2023-11-16_14h55.58.720,ETproject_Chi_2023.1.1,2023.1.1,59.850851677642055,
59,Month,七月,三月,,Vert,late,up,image/Chi_late.png,"[0, 0.4]","[0, -0.4]",4,incongruent,,,,,,,,,,,,,,0,34,34,47,,,,,,,,,,,,,,,,,,,,,,,,,,,,,,,,,,,,,,,,,,,,,,,,,,,,,,312.55132220000087,1.0122025000018766,313.5597546999925,313.6429640999995,314.4427957000007,314.5428569999931,314.5428569999931,314.5428569999931,up,1,0.7636884999956237,,,,,,,,,,,,,,,,,,,,,,,,,,,,,,,,,,,,,006,001,2023-11-16_14h55.58.720,ETproject_Chi_2023.1.1,2023.1.1,59.850851677642055,
58,Month,六月,二月,,Vert,late,up,image/Chi_late.png,"[0, 0.4]","[0, -0.4]",4,incongruent,,,,,,,,,,,,,,0,35,35,18,,,,,,,,,,,,,,,,,,,,,,,,,,,,,,,,,,,,,,,,,,,,,,,,,,,,,,315.3310960999952,1.0158053000050131,316.3421479999961,316.42554359999485,317.22540409999783,317.32528739998816,317.32528739998816,317.32528739998816,up,1,0.7741689999966184,,,,,,,,,,,,,,,,,,,,,,,,,,,,,,,,,,,,,006,001,2023-11-16_14h55.58.720,ETproject_Chi_2023.1.1,2023.1.1,59.850851677642055,
99,Week,星期三 ,星期六,,Hori,early,left,image/Chi_early.png,"[-0.4, 0]","[0.4, 0]",3,congruent,,,,,,,,,,,,,,0,36,36,6,,,,,,,,,,,,,,,,,,,,,,,,,,,,,,,,,,,,,,,,,,,,,,,,,,,,,,318.1384337999916,1.0131932999938726,319.141395300001,319.2245811999892,320.02440470000147,320.12460529999225,320.12460529999225,320.12460529999225,left,1,0.6549507000017911,,,,,,,,,,,,,,,,,,,,,,,,,,,,,,,,,,,,,006,001,2023-11-16_14h55.58.720,ETproject_Chi_2023.1.1,2023.1.1,59.850851677642055,
112,Week,星期二,星期三 ,,Vert,early,up,image/Chi_early.png,"[0, 0.4]","[0, -0.4]",1,congruent,,,,,,,,,,,,,,0,37,37,31,,,,,,,,,,,,,,,,,,,,,,,,,,,,,,,,,,,,,,,,,,,,,,,,,,,,,,320.8157982999983,1.0122222999925725,321.82393279999087,321.90707249999105,322.7068792999926,322.80679819999204,322.80679819999204,322.80679819999204,up,1,0.8117345000064233,,,,,,,,,,,,,,,,,,,,,,,,,,,,,,,,,,,,,006,001,2023-11-16_14h55.58.720,ETproject_Chi_2023.1.1,2023.1.1,59.850851677642055,
23,Month,七月,十一月 ,,Vert,early,up,image/Chi_early.png,"[0, 0.4]","[0, -0.4]",4,congruent,,,,,,,,,,,,,,0,38,38,48,,,,,,,,,,,,,,,,,,,,,,,,,,,,,,,,,,,,,,,,,,,,,,,,,,,,,,324.6470446999883,1.0140065999876242,325.6561107999878,325.7390974000009,326.53874350000115,326.6388234999904,326.6388234999904,326.6388234999904,up,1,0.7565116999903694,,,,,,,,,,,,,,,,,,,,,,,,,,,,,,,,,,,,,006,001,2023-11-16_14h55.58.720,ETproject_Chi_2023.1.1,2023.1.1,59.850851677642055,
101,Week,星期五,星期六,,Hori,early,left,image/Chi_early.png,"[-0.4, 0]","[0.4, 0]",1,congruent,,,,,,,,,,,,,,0,39,39,42,,,,,,,,,,,,,,,,,,,,,,,,,,,,,,,,,,,,,,,,,,,,,,,,,,,,,,327.4316453999927,1.0108315000106813,328.43819459999213,328.521682599996,329.3213706999959,329.42149110000173,329.42149110000173,329.42149110000173,left,1,0.8937310000037542,,,,,,,,,,,,,,,,,,,,,,,,,,,,,,,,,,,,,006,001,2023-11-16_14h55.58.720,ETproject_Chi_2023.1.1,2023.1.1,59.850851677642055,
49,Month,七月,四月,,Hori,late,left,image/Chi_late.png,"[-0.4, 0]","[0.4, 0]",3,incongruent,,,,,,,,,,,,,,0,40,40,38,,,,,,,,,,,,,,,,,,,,,,,,,,,,,,,,,,,,,,,,,,,,,,,,,,,,,,330.3512641999987,1.0107040000002598,331.3538092999952,331.4371287999966,332.23699989999295,332.3368647999887,332.3368647999887,332.3368647999887,left,1,0.6895588000043062,,,,,,,,,,,,,,,,,,,,,,,,,,,,,,,,,,,,,006,001,2023-11-16_14h55.58.720,ETproject_Chi_2023.1.1,2023.1.1,59.850851677642055,
26,Month,六月,八月,,Vert,early,up,image/Chi_early.png,"[0, 0.4]","[0, -0.4]",2,congruent,,,,,,,,,,,,,,0,41,41,32,,,,,,,,,,,,,,,,,,,,,,,,,,,,,,,,,,,,,,,,,,,,,,,,,,,,,,333.0698035999958,1.0115121999988332,334.0698166999937,334.1533139999956,334.95290409999143,335.0528769999946,335.0528769999946,335.0528769999946,up,1,0.950809300004039,,,,,,,,,,,,,,,,,,,,,,,,,,,,,,,,,,,,,006,001,2023-11-16_14h55.58.720,ETproject_Chi_2023.1.1,2023.1.1,59.850851677642055,
139,Week,星期四,星期一,,Vert,early,down,image/Chi_early.png,"[0, 0.4]","[0, -0.4]",3,incongruent,,,,,,,,,,,,,,0,42,42,7,,,,,,,,,,,,,,,,,,,,,,,,,,,,,,,,,,,,,,,,,,,,,,,,,,,,,,336.03979999999865,0.9995751999958884,337.05224859999726,337.13538219999464,337.93503449999844,338.03524859999015,338.03524859999015,338.03524859999015,down,1,0.8162156000034884,,,,,,,,,,,,,,,,,,,,,,,,,,,,,,,,,,,,,006,001,2023-11-16_14h55.58.720,ETproject_Chi_2023.1.1,2023.1.1,59.850851677642055,
118,Week,星期一,星期四,,Vert,late,down,image/Chi_late.png,"[0, 0.4]","[0, -0.4]",3,congruent,,,,,,,,,,,,,,0,43,43,45,,,,,,,,,,,,,,,,,,,,,,,,,,,,,,,,,,,,,,,,,,,,,,,,,,,,,,338.87853579998773,1.0149397000059253,339.8845153000002,339.9677343999938,340.76756119998754,340.8677088999975,340.8677088999975,340.8677088999975,down,1,0.7842328000115231,,,,,,,,,,,,,,,,,,,,,,,,,,,,,,,,,,,,,006,001,2023-11-16_14h55.58.720,ETproject_Chi_2023.1.1,2023.1.1,59.850851677642055,
16,Month,六月,八月,,Hori,late,right,image/Chi_late.png,"[-0.4, 0]","[0.4, 0]",2,congruent,,,,,,,,,,,,,,0,44,44,30,,,,,,,,,,,,,,,,,,,,,,,,,,,,,,,,,,,,,,,,,,,,,,,,,,,,,,341.691822599998,1.0122649999975692,342.70014639999135,342.78364129998954,343.58324729999003,343.68346609998844,343.68346609998844,343.68346609998844,right,1,0.6480597000045236,,,,,,,,,,,,,,,,,,,,,,,,,,,,,,,,,,,,,006,001,2023-11-16_14h55.58.720,ETproject_Chi_2023.1.1,2023.1.1,59.850851677642055,
50,Month,八月,五月,,Hori,late,left,image/Chi_late.png,"[-0.4, 0]","[0.4, 0]",3,incongruent,,,,,,,,,,,,,,0,45,45,35,,,,,,,,,,,,,,,,,,,,,,,,,,,,,,,,,,,,,,,,,,,,,,,,,,,,,,344.3602009999886,1.0114126999978907,345.36594279999554,345.44931689999066,346.2490134999971,346.34899790000054,346.34899790000054,346.34899790000054,left,1,0.8303752000065288,,,,,,,,,,,,,,,,,,,,,,,,,,,,,,,,,,,,,006,001,2023-11-16_14h55.58.720,ETproject_Chi_2023.1.1,2023.1.1,59.850851677642055,
101,Week,星期五,星期日,,Hori,early,left,image/Chi_early.png,"[-0.4, 0]","[0.4, 0]",2,congruent,,,,,,,,,,,,,,0,46,46,40,,,,,,,,,,,,,,,,,,,,,,,,,,,,,,,,,,,,,,,,,,,,,,,,,,,,,,347.2101444,0.99926769999729,348.2150362999964,348.29846089999774,349.0981954000017,349.19813049999357,349.19813049999357,349.19813049999357,left,1,0.9251049000013154,,,,,,,,,,,,,,,,,,,,,,,,,,,,,,,,,,,,,006,001,2023-11-16_14h55.58.720,ETproject_Chi_2023.1.1,2023.1.1,59.850851677642055,
20,Month,四月,八月,,Vert,early,up,image/Chi_early.png,"[0, 0.4]","[0, -0.4]",4,congruent,,,,,,,,,,,,,,0,47,47,4,,,,,,,,,,,,,,,,,,,,,,,,,,,,,,,,,,,,,,,,,,,,,,,,,,,,,,350.1555995999952,1.0153693000029307,351.1642533999984,351.2473440999893,352.04713300000003,352.147298099997,352.147298099997,352.147298099997,up,1,0.7912708000076236,,,,,,,,,,,,,,,,,,,,,,,,,,,,,,,,,,,,,006,001,2023-11-16_14h55.58.720,ETproject_Chi_2023.1.1,2023.1.1,59.850851677642055,
116,Week,星期六,星期日,,Vert,early,up,image/Chi_early.png,"[0, 0.4]","[0, -0.4]",1,congruent,,,,,,,,,,,,,,0,48,48,10,,,,,,,,,,,,,,,,,,,,,,,,,,,,,,,,,,,,,,,,,,,,,,,,,,,,,,352.9723870000016,1.0122714000026463,353.9797818999941,354.0630247999943,354.8628802999883,354.96300150000025,354.96300150000025,354.96300150000025,up,1,0.9367415000015171,,,,,,,,,,,,,,,,,,,,,,,,,,,,,,,,,,,,,006,001,2023-11-16_14h55.58.720,ETproject_Chi_2023.1.1,2023.1.1,59.850851677642055,
45,Month,九月 ,五月,,Hori,late,left,image/Chi_late.png,"[-0.4, 0]","[0.4, 0]",4,incongruent,,,,,,,,,,,,,,0,49,49,39,,,,,,,,,,,,,,,,,,,,,,,,,,,,,,,,,,,,,,,,,,,,,,,,,,,,,,355.9404987000016,1.0116340000095079,356.9455232999899,357.0288002999878,357.82854649999354,357.9289557000011,357.9289557000011,357.9289557000011,left,1,0.882494500008761,,,,,,,,,,,,,,,,,,,,,,,,,,,,,,,,,,,,,006,001,2023-11-16_14h55.58.720,ETproject_Chi_2023.1.1,2023.1.1,59.850851677642055,
,,,,,,,,,,,,,,,,,,,,,,,,,,,,,,,,,,,,,,,,,,,,,,,,,,,,,,,,,,,,,,,,,,,,,,,,,,,,,,,,,,,,,,,,,,,,,,358.82857279999007,358.82857279999007,space,8.622849100007443,,,,,,,,,,,,,,,,,,,,,,,,,,,,,,,,,006,001,2023-11-16_14h55.58.720,ETproject_Chi_2023.1.1,2023.1.1,59.850851677642055,
,,,,,,,,,,,,,Spring 1.jpg,这是春天吗？,是,Left,Break_material/Image/Spring 1.jpg,,,,,,,,,,,,,0,0,0,0,,,,,,,,,,,,,,,,,,,,,,,,,,,,,,,,,,,,,,,,,,,,,,,,,,,,,,,,,,,,,,,,,367.54713529998844,371.4607265999948,371.55743000000075,373.4734260999976,373.4734260999976,373.4734260999976,373.4734260999976,left,0,0.7226689999952214,,,,,,,,,,,,,,,,,,,,,,,006,001,2023-11-16_14h55.58.720,ETproject_Chi_2023.1.1,2023.1.1,59.850851677642055,
,,,,,,,,,,,,,Spring 5.jpg,这是冬天吗？,否,Right,Break_material/Image/Spring 5.jpg,,,,,,,,,,,,,0,1,1,4,,,,,,,,,,,,,,,,,,,,,,,,,,,,,,,,,,,,,,,,,,,,,,,,,,,,,,,,,,,,,,,,,374.68944159999955,378.2097083999979,378.6883641999884,380.2213128000003,380.2213128000003,380.2213128000003,380.2213128000003,right,0,0.5822063999949023,,,,,,,,,,,,,,,,,,,,,,,006,001,2023-11-16_14h55.58.720,ETproject_Chi_2023.1.1,2023.1.1,59.850851677642055,
,,,,,,,,,,,,,Spring 2.jpg,这是冬天吗？,否,Right,Break_material/Image/Spring 2.jpg,,,,,,,,,,,,,0,2,2,1,,,,,,,,,,,,,,,,,,,,,,,,,,,,,,,,,,,,,,,,,,,,,,,,,,,,,,,,,,,,,,,,,381.0606141999888,384.8067183999956,385.06953670000075,386.8190750999929,386.8190750999929,386.8190750999929,386.8190750999929,right,0,0.47972059999301564,,,,,,,,,,,,,,,,,,,,,,,006,001,2023-11-16_14h55.58.720,ETproject_Chi_2023.1.1,2023.1.1,59.850851677642055,
,,,,,,,,,,,,,Spring 4.jpg,这是秋天吗？,否,Right,Break_material/Image/Spring 4.jpg,,,,,,,,,,,,,0,3,3,3,,,,,,,,,,,,,,,,,,,,,,,,,,,,,,,,,,,,,,,,,,,,,,,,,,,,,,,,,,,,,,,,,387.53020249999827,391.3056002999947,391.53423979999206,393.31698789999064,393.31698789999064,393.31698789999064,393.31698789999064,right,0,0.6052499999932479,,,,,,,,,,,,,,,,,,,,,,,006,001,2023-11-16_14h55.58.720,ETproject_Chi_2023.1.1,2023.1.1,59.850851677642055,
,,,,,,,,,,,,,Spring 3.jpg,这是夏天吗？,否,Right,Break_material/Image/Spring 3.jpg,,,,,,,,,,,,,0,4,4,2,,,,,,,,,,,,,,,,,,,,,,,,,,,,,,,,,,,,,,,,,,,,,,,,,,,,,,,,,,,,,,,,,394.02332589999423,397.93561729999783,398.03208459999587,399.94795959998737,399.94795959998737,399.94795959998737,399.94795959998737,left,0,1.9438402999949176,,,,,,,,,,,,,,,,,,,,,,,006,001,2023-11-16_14h55.58.720,ETproject_Chi_2023.1.1,2023.1.1,59.850851677642055,
,,,,,,,,,,,,,Spring 6.jpg,这是春天吗？,是,Left,Break_material/Image/Spring 6.jpg,,,,,,,,,,,,,0,5,5,5,,,,,,,,,,,,,,,,,,,,,,,,,,,,,,,,,,,,,,,,,,,,,,,,,,,,,,,,,,,,,,,,,402.5637726999994,405.900773699992,406.56247520000034,407.91207679999934,407.91207679999934,407.91207679999934,407.91207679999934,right,0,0.6998265000001993,,,,,,,,,,,,,,,,,,,,,,,006,001,2023-11-16_14h55.58.720,ETproject_Chi_2023.1.1,2023.1.1,59.850851677642055,
,,,,,,,,,,,,,,,,,,,,,,,,,,,,,,,,,,,,,,,,,,,,,,,,,,,,,,,,,,,,,,,,,,,,,,,,,,,,,,,,,,,,,,,,,,,,,,,,,,,,,,,,,,,,408.628993499995,408.628993499995,space,3.685747800001991,,,,,,,,,,,,,,,,,,,006,001,2023-11-16_14h55.58.720,ETproject_Chi_2023.1.1,2023.1.1,59.850851677642055,
13,Month,二月,三月,,Hori,late,right,image/Chi_late.png,"[-0.4, 0]","[0.4, 0]",1,congruent,,,,,,,,,,,,,,,,,,,,,,0,0,0,42,,,,,,,,,,,,,,,,,,,,,,,,,,,,,,,,,,,,,,,,,,,,,,412.3589049000002,0.9994177999906242,413.36017859999265,413.443540799999,414.2436231999891,414.34342579999065,414.34342579999065,414.34342579999065,right,1,0.8765402999997605,,,,,,,,,,,,,,,,,,,,,,,,,,,,,,,,,,,,,006,001,2023-11-16_14h55.58.720,ETproject_Chi_2023.1.1,2023.1.1,59.850851677642055,
123,Week,星期六,星期日,,Vert,late,down,image/Chi_late.png,"[0, 0.4]","[0, -0.4]",1,congruent,,,,,,,,,,,,,,,,,,,,,,0,1,1,31,,,,,,,,,,,,,,,,,,,,,,,,,,,,,,,,,,,,,,,,,,,,,,415.2604573999997,1.0118944000132615,416.2593715999974,416.34268000000156,417.14240569999674,417.24235209998733,417.24235209998733,417.24235209998733,down,1,0.9041035999980522,,,,,,,,,,,,,,,,,,,,,,,,,,,,,,,,,,,,,006,001,2023-11-16_14h55.58.720,ETproject_Chi_2023.1.1,2023.1.1,59.850851677642055,
111,Week,星期一,星期三 ,,Vert,early,up,image/Chi_early.png,"[0, 0.4]","[0, -0.4]",2,congruent,,,,,,,,,,,,,,,,,,,,,,0,2,2,8,,,,,,,,,,,,,,,,,,,,,,,,,,,,,,,,,,,,,,,,,,,,,,418.201209699997,1.0109948000026634,419.20824880000146,419.27486049999425,420.074827599994,420.1748676999996,420.1748676999996,420.1748676999996,up,1,0.7636048999993363,,,,,,,,,,,,,,,,,,,,,,,,,,,,,,,,,,,,,006,001,2023-11-16_14h55.58.720,ETproject_Chi_2023.1.1,2023.1.1,59.850851677642055,
98,Week,星期二,星期五,,Hori,early,left,image/Chi_early.png,"[-0.4, 0]","[0.4, 0]",3,congruent,,,,,,,,,,,,,,,,,,,,,,0,3,3,39,,,,,,,,,,,,,,,,,,,,,,,,,,,,,,,,,,,,,,,,,,,,,,421.96436019999965,1.0146139000135008,422.97377369999595,423.0571765999921,423.85669689999486,423.9567199000012,423.9567199000012,423.9567199000012,left,1,0.7113212999975076,,,,,,,,,,,,,,,,,,,,,,,,,,,,,,,,,,,,,006,001,2023-11-16_14h55.58.720,ETproject_Chi_2023.1.1,2023.1.1,59.850851677642055,
57,Month,三月,二月,,Hori,late,left,image/Chi_late.png,"[-0.4, 0]","[0.4, 0]",1,incongruent,,,,,,,,,,,,,,,,,,,,,,0,4,4,13,,,,,,,,,,,,,,,,,,,,,,,,,,,,,,,,,,,,,,,,,,,,,,424.7018906000012,0.9991784000012558,425.70611039998767,425.7894988999906,426.5892077999888,426.68920269999944,426.68920269999944,426.68920269999944,left,1,0.8257406000047922,,,,,,,,,,,,,,,,,,,,,,,,,,,,,,,,,,,,,006,001,2023-11-16_14h55.58.720,ETproject_Chi_2023.1.1,2023.1.1,59.850851677642055,
72,Month,四月,二月,,Vert,late,up,image/Chi_late.png,"[0, 0.4]","[0, -0.4]",2,incongruent,,,,,,,,,,,,,,,,,,,,,,0,5,5,41,,,,,,,,,,,,,,,,,,,,,,,,,,,,,,,,,,,,,,,,,,,,,,427.5481141999917,1.0121679000003496,428.5551573999983,428.6385573000007,429.4381694999902,429.5382479999971,429.5382479999971,429.5382479999971,up,1,0.8402483000099892,,,,,,,,,,,,,,,,,,,,,,,,,,,,,,,,,,,,,006,001,2023-11-16_14h55.58.720,ETproject_Chi_2023.1.1,2023.1.1,59.850851677642055,
16,Month,八月,十二月,,Hori,late,right,image/Chi_late.png,"[-0.4, 0]","[0.4, 0]",4,congruent,,,,,,,,,,,,,,,,,,,,,,0,6,6,27,,,,,,,,,,,,,,,,,,,,,,,,,,,,,,,,,,,,,,,,,,,,,,430.4139104999922,1.012034200000926,431.42099639998924,431.50419949999196,432.30410579999443,432.4039985999989,432.4039985999989,432.4039985999989,right,1,0.9118291999911889,,,,,,,,,,,,,,,,,,,,,,,,,,,,,,,,,,,,,006,001,2023-11-16_14h55.58.720,ETproject_Chi_2023.1.1,2023.1.1,59.850851677642055,
26,Month,八月,十一月 ,,Vert,early,up,image/Chi_early.png,"[0, 0.4]","[0, -0.4]",3,congruent,,,,,,,,,,,,,,,,,,,,,,0,7,7,44,,,,,,,,,,,,,,,,,,,,,,,,,,,,,,,,,,,,,,,,,,,,,,433.3488362999924,1.0124443000095198,434.35341029999836,434.436729699999,435.23640409999643,435.33634860000166,435.33634860000166,435.33634860000166,up,1,0.7553712999942945,,,,,,,,,,,,,,,,,,,,,,,,,,,,,,,,,,,,,006,001,2023-11-16_14h55.58.720,ETproject_Chi_2023.1.1,2023.1.1,59.850851677642055,
2,Month,二月,五月,,Hori,early,left,image/Chi_early.png,"[-0.4, 0]","[0.4, 0]",3,congruent,,,,,,,,,,,,,,,,,,,,,,0,8,8,36,,,,,,,,,,,,,,,,,,,,,,,,,,,,,,,,,,,,,,,,,,,,,,436.1282448999991,1.0107985999929952,437.13582269998733,437.21933769999305,438.01858789999096,438.11878039999283,438.11878039999283,438.11878039999283,left,1,0.7637145999906352,,,,,,,,,,,,,,,,,,,,,,,,,,,,,,,,,,,,,006,001,2023-11-16_14h55.58.720,ETproject_Chi_2023.1.1,2023.1.1,59.850851677642055,
48,Month,十月 ,八月,,Hori,early,right,image/Chi_early.png,"[-0.4, 0]","[0.4, 0]",2,incongruent,,,,,,,,,,,,,,,,,,,,,,0,9,9,32,,,,,,,,,,,,,,,,,,,,,,,,,,,,,,,,,,,,,,,,,,,,,,438.9069761999999,0.9990852000046289,439.91818839999905,440.0015730000014,440.80128169999807,440.901243699991,440.901243699991,440.901243699991,right,1,0.9424853999953484,,,,,,,,,,,,,,,,,,,,,,,,,,,,,,,,,,,,,006,001,2023-11-16_14h55.58.720,ETproject_Chi_2023.1.1,2023.1.1,59.850851677642055,
55,Month,四月,一月,,Vert,early,down,image/Chi_early.png,"[0, 0.4]","[0, -0.4]",3,incongruent,,,,,,,,,,,,,,,,,,,,,,0,10,10,22,,,,,,,,,,,,,,,,,,,,,,,,,,,,,,,,,,,,,,,,,,,,,,441.87470799998846,1.0130154000071343,442.88389499999175,442.9672399999981,443.76690209998924,443.86707079999906,443.86707079999906,443.86707079999906,down,1,0.888125299999956,,,,,,,,,,,,,,,,,,,,,,,,,,,,,,,,,,,,,006,001,2023-11-16_14h55.58.720,ETproject_Chi_2023.1.1,2023.1.1,59.850851677642055,
114,Week,星期四,星期五,,Vert,early,up,image/Chi_early.png,"[0, 0.4]","[0, -0.4]",1,congruent,,,,,,,,,,,,,,,,,,,,,,0,11,11,10,,,,,,,,,,,,,,,,,,,,,,,,,,,,,,,,,,,,,,,,,,,,,,444.79311980000057,1.012458199998946,445.79968989999907,445.88298029999714,446.6826230000006,446.7829184000002,446.7829184000002,446.7829184000002,up,1,0.8033453999960329,,,,,,,,,,,,,,,,,,,,,,,,,,,,,,,,,,,,,006,001,2023-11-16_14h55.58.720,ETproject_Chi_2023.1.1,2023.1.1,59.850851677642055,
16,Month,七月,十月 ,,Hori,late,right,image/Chi_late.png,"[-0.4, 0]","[0.4, 0]",3,congruent,,,,,,,,,,,,,,,,,,,,,,0,12,12,43,,,,,,,,,,,,,,,,,,,,,,,,,,,,,,,,,,,,,,,,,,,,,,447.63107069999387,1.0098647999984678,448.63198099999863,448.7152902999951,449.51502510000137,449.61505529998976,449.61505529998976,449.61505529998976,right,1,0.9883093999960693,,,,,,,,,,,,,,,,,,,,,,,,,,,,,,,,,,,,,006,001,2023-11-16_14h55.58.720,ETproject_Chi_2023.1.1,2023.1.1,59.850851677642055,
4,Month,四月,六月,,Hori,early,left,image/Chi_early.png,"[-0.4, 0]","[0.4, 0]",2,congruent,,,,,,,,,,,,,,,,,,,,,,0,13,13,20,,,,,,,,,,,,,,,,,,,,,,,,,,,,,,,,,,,,,,,,,,,,,,450.6447843999922,1.0112796000030357,451.64766509999754,451.73089989999426,452.53074679999554,452.6307958999969,452.6307958999969,452.6307958999969,left,1,0.8130846999993082,,,,,,,,,,,,,,,,,,,,,,,,,,,,,,,,,,,,,006,001,2023-11-16_14h55.58.720,ETproject_Chi_2023.1.1,2023.1.1,59.850851677642055,
60,Month,十二月,十月 ,,Hori,late,left,image/Chi_late.png,"[-0.4, 0]","[0.4, 0]",2,incongruent,,,,,,,,,,,,,,,,,,,,,,0,14,14,45,,,,,,,,,,,,,,,,,,,,,,,,,,,,,,,,,,,,,,,,,,,,,,453.4815254999994,1.0107526999927359,454.4799859999912,454.56349619998946,455.3629256999993,455.4629595000006,455.4629595000006,455.4629595000006,left,1,0.7645168000017293,,,,,,,,,,,,,,,,,,,,,,,,,,,,,,,,,,,,,006,001,2023-11-16_14h55.58.720,ETproject_Chi_2023.1.1,2023.1.1,59.850851677642055,
102,Week,星期六,星期日,,Hori,early,left,image/Chi_early.png,"[-0.4, 0]","[0.4, 0]",1,congruent,,,,,,,,,,,,,,,,,,,,,,0,15,15,15,,,,,,,,,,,,,,,,,,,,,,,,,,,,,,,,,,,,,,,,,,,,,,456.25319969998964,1.0150275000050897,457.26245259999996,457.3458352999878,458.14558899999247,458.2455639999971,458.2455639999971,458.2455639999971,left,1,1.2302171000046656,,,,,,,,,,,,,,,,,,,,,,,,,,,,,,,,,,,,,006,001,2023-11-16_14h55.58.720,ETproject_Chi_2023.1.1,2023.1.1,59.850851677642055,
61,Month,十月 ,七月,,Vert,early,down,image/Chi_early.png,"[0, 0.4]","[0, -0.4]",3,incongruent,,,,,,,,,,,,,,,,,,,,,,0,16,16,16,,,,,,,,,,,,,,,,,,,,,,,,,,,,,,,,,,,,,,,,,,,,,,459.5009456999978,1.0154457000026014,460.51141349998943,460.5946292000008,461.39450709999073,461.4945049999951,461.4945049999951,461.4945049999951,down,1,1.1489074999990407,,,,,,,,,,,,,,,,,,,,,,,,,,,,,,,,,,,,,006,001,2023-11-16_14h55.58.720,ETproject_Chi_2023.1.1,2023.1.1,59.850851677642055,
1,Month,一月,四月,,Hori,early,left,image/Chi_early.png,"[-0.4, 0]","[0.4, 0]",3,congruent,,,,,,,,,,,,,,,,,,,,,,0,17,17,34,,,,,,,,,,,,,,,,,,,,,,,,,,,,,,,,,,,,,,,,,,,,,,463.6660218999896,1.0143532999936724,464.6766217999975,464.7600909999892,465.55988249999064,465.65980399999535,465.65980399999535,465.65980399999535,left,1,0.6949774000095204,,,,,,,,,,,,,,,,,,,,,,,,,,,,,,,,,,,,,006,001,2023-11-16_14h55.58.720,ETproject_Chi_2023.1.1,2023.1.1,59.850851677642055,
141,Week,星期六,星期三 ,,Vert,early,down,image/Chi_early.png,"[0, 0.4]","[0, -0.4]",3,incongruent,,,,,,,,,,,,,,,,,,,,,,0,18,18,29,,,,,,,,,,,,,,,,,,,,,,,,,,,,,,,,,,,,,,,,,,,,,,467.3807375999895,1.0152202000026591,468.39217199999257,468.4754041999986,469.2751963999908,469.37520339999173,469.37520339999173,469.37520339999173,down,1,0.9157189999968978,,,,,,,,,,,,,,,,,,,,,,,,,,,,,,,,,,,,,006,001,2023-11-16_14h55.58.720,ETproject_Chi_2023.1.1,2023.1.1,59.850851677642055,
14,Month,四月,六月,,Hori,late,right,image/Chi_late.png,"[-0.4, 0]","[0.4, 0]",2,congruent,,,,,,,,,,,,,,,,,,,,,,0,19,19,26,,,,,,,,,,,,,,,,,,,,,,,,,,,,,,,,,,,,,,,,,,,,,,470.32152289999067,1.0124856000038562,471.3244910999929,471.40775439998833,472.2078560999944,472.3075925000012,472.3075925000012,472.3075925000012,right,1,0.935072799999034,,,,,,,,,,,,,,,,,,,,,,,,,,,,,,,,,,,,,006,001,2023-11-16_14h55.58.720,ETproject_Chi_2023.1.1,2023.1.1,59.850851677642055,
53,Month,五月,三月,,Hori,late,left,image/Chi_late.png,"[-0.4, 0]","[0.4, 0]",2,incongruent,,,,,,,,,,,,,,,,,,,,,,0,20,20,2,,,,,,,,,,,,,,,,,,,,,,,,,,,,,,,,,,,,,,,,,,,,,,474.2806249999994,1.014832100001513,475.2897934999928,475.3734581999888,476.17312870000023,476.2730409999931,476.2730409999931,476.2730409999931,left,1,0.7470498999900883,,,,,,,,,,,,,,,,,,,,,,,,,,,,,,,,,,,,,006,001,2023-11-16_14h55.58.720,ETproject_Chi_2023.1.1,2023.1.1,59.850851677642055,
134,Week,星期五,星期三 ,,Hori,late,left,image/Chi_late.png,"[-0.4, 0]","[0.4, 0]",2,incongruent,,,,,,,,,,,,,,,,,,,,,,0,21,21,47,,,,,,,,,,,,,,,,,,,,,,,,,,,,,,,,,,,,,,,,,,,,,,477.0457399000006,1.0154452999995556,478.0557659999904,478.138976199989,478.9386349999986,479.0387150999886,479.0387150999886,479.0387150999886,left,1,0.7091783000068972,,,,,,,,,,,,,,,,,,,,,,,,,,,,,,,,,,,,,006,001,2023-11-16_14h55.58.720,ETproject_Chi_2023.1.1,2023.1.1,59.850851677642055,
82,Month,六月,五月,,Vert,late,up,image/Chi_late.png,"[0, 0.4]","[0, -0.4]",1,incongruent,,,,,,,,,,,,,,,,,,,,,,0,22,22,33,,,,,,,,,,,,,,,,,,,,,,,,,,,,,,,,,,,,,,,,,,,,,,480.7765145000012,1.0148404999927152,481.78769230000034,481.8711132999888,482.670735599997,482.77072689999477,482.77072689999477,482.77072689999477,up,1,0.9846764999965671,,,,,,,,,,,,,,,,,,,,,,,,,,,,,,,,,,,,,006,001,2023-11-16_14h55.58.720,ETproject_Chi_2023.1.1,2023.1.1,59.850851677642055,
70,Month,十月 ,七月,,Vert,late,up,image/Chi_late.png,"[0, 0.4]","[0, -0.4]",3,incongruent,,,,,,,,,,,,,,,,,,,,,,0,23,23,19,,,,,,,,,,,,,,,,,,,,,,,,,,,,,,,,,,,,,,,,,,,,,,484.7919523999881,1.0147858999989694,485.80302449999726,485.88638559999526,486.6862997999997,486.7860267999931,486.7860267999931,486.7860267999931,up,1,1.1369839999970281,,,,,,,,,,,,,,,,,,,,,,,,,,,,,,,,,,,,,006,001,2023-11-16_14h55.58.720,ETproject_Chi_2023.1.1,2023.1.1,59.850851677642055,
25,Month,一月,五月,,Vert,late,down,image/Chi_late.png,"[0, 0.4]","[0, -0.4]",4,congruent,,,,,,,,,,,,,,,,,,,,,,0,24,24,23,,,,,,,,,,,,,,,,,,,,,,,,,,,,,,,,,,,,,,,,,,,,,,487.9581265000015,1.014528400002746,488.96861289998924,489.05200669998885,489.8518621999974,489.9517935999902,489.9517935999902,489.9517935999902,down,1,0.9312902999954531,,,,,,,,,,,,,,,,,,,,,,,,,,,,,,,,,,,,,006,001,2023-11-16_14h55.58.720,ETproject_Chi_2023.1.1,2023.1.1,59.850851677642055,
39,Month,九月 ,十一月 ,,Vert,late,down,image/Chi_late.png,"[0, 0.4]","[0, -0.4]",2,congruent,,,,,,,,,,,,,,,,,,,,,,0,25,25,14,,,,,,,,,,,,,,,,,,,,,,,,,,,,,,,,,,,,,,,,,,,,,,490.90874549999717,1.0124209999921732,491.9178275000013,492.00106309998955,492.80068149999715,492.9008502999932,492.9008502999932,492.9008502999932,down,1,0.7737435999879381,,,,,,,,,,,,,,,,,,,,,,,,,,,,,,,,,,,,,006,001,2023-11-16_14h55.58.720,ETproject_Chi_2023.1.1,2023.1.1,59.850851677642055,
84,Month,八月,七月,,Vert,late,up,image/Chi_late.png,"[0, 0.4]","[0, -0.4]",1,incongruent,,,,,,,,,,,,,,,,,,,,,,0,26,26,18,,,,,,,,,,,,,,,,,,,,,,,,,,,,,,,,,,,,,,,,,,,,,,493.7098818999948,1.0119619000033708,494.71693660000165,494.8002603999921,495.59986489999574,495.69993679999607,495.69993679999607,495.69993679999607,up,1,1.0083497000014177,,,,,,,,,,,,,,,,,,,,,,,,,,,,,,,,,,,,,006,001,2023-11-16_14h55.58.720,ETproject_Chi_2023.1.1,2023.1.1,59.850851677642055,
18,Month,九月 ,十二月,,Hori,late,right,image/Chi_late.png,"[-0.4, 0]","[0.4, 0]",3,congruent,,,,,,,,,,,,,,,,,,,,,,0,27,27,9,,,,,,,,,,,,,,,,,,,,,,,,,,,,,,,,,,,,,,,,,,,,,,496.7410532999929,1.0118094000063138,497.749250199995,497.83249439999054,498.6322349999973,498.73226999999315,498.73226999999315,498.73226999999315,right,1,0.7261549999966519,,,,,,,,,,,,,,,,,,,,,,,,,,,,,,,,,,,,,006,001,2023-11-16_14h55.58.720,ETproject_Chi_2023.1.1,2023.1.1,59.850851677642055,
7,Month,七月,十一月 ,,Hori,early,left,image/Chi_early.png,"[-0.4, 0]","[0.4, 0]",4,congruent,,,,,,,,,,,,,,,,,,,,,,0,28,28,49,,,,,,,,,,,,,,,,,,,,,,,,,,,,,,,,,,,,,,,,,,,,,,499.4994446999917,1.0109189000068,500.498251099998,500.5815756999946,501.3812787999923,501.48132669999904,501.48132669999904,501.48132669999904,left,1,0.8983821000147145,,,,,,,,,,,,,,,,,,,,,,,,,,,,,,,,,,,,,006,001,2023-11-16_14h55.58.720,ETproject_Chi_2023.1.1,2023.1.1,59.850851677642055,
42,Month,九月 ,十月 ,,Vert,late,down,image/Chi_late.png,"[0, 0.4]","[0, -0.4]",1,congruent,,,,,,,,,,,,,,,,,,,,,,0,29,29,0,,,,,,,,,,,,,,,,,,,,,,,,,,,,,,,,,,,,,,,,,,,,,,502.40558969999256,1.0150614000012865,503.41390729999694,503.497384199989,504.29701080000086,504.39693059999263,504.39693059999263,504.39693059999263,down,1,0.9975332000030903,,,,,,,,,,,,,,,,,,,,,,,,,,,,,,,,,,,,,006,001,2023-11-16_14h55.58.720,ETproject_Chi_2023.1.1,2023.1.1,59.850851677642055,
23,Month,一月,二月 ,,Vert,early,up,image/Chi_early.png,"[0, 0.4]","[0, -0.4]",1,congruent,,,,,,,,,,,,,,,,,,,,,,0,30,30,30,,,,,,,,,,,,,,,,,,,,,,,,,,,,,,,,,,,,,,,,,,,,,,505.42798499998753,1.0110509999940405,506.4295204999944,506.5129511999985,507.312723199997,507.41273729999375,507.41273729999375,507.41273729999375,up,1,0.757943399992655,,,,,,,,,,,,,,,,,,,,,,,,,,,,,,,,,,,,,006,001,2023-11-16_14h55.58.720,ETproject_Chi_2023.1.1,2023.1.1,59.850851677642055,
39,Month,十一月 ,七月,,Hori,early,right,image/Chi_early.png,"[-0.4, 0]","[0.4, 0]",4,incongruent,,,,,,,,,,,,,,,,,,,,,,0,31,31,40,,,,,,,,,,,,,,,,,,,,,,,,,,,,,,,,,,,,,,,,,,,,,,508.20757759999833,1.0103180000005523,509.211962699992,509.2954861999897,510.0950317999959,510.1952741999994,510.1952741999994,510.1952741999994,right,1,0.8323148999916157,,,,,,,,,,,,,,,,,,,,,,,,,,,,,,,,,,,,,006,001,2023-11-16_14h55.58.720,ETproject_Chi_2023.1.1,2023.1.1,59.850851677642055,
10,Month,二月,六月,,Hori,late,right,image/Chi_late.png,"[-0.4, 0]","[0.4, 0]",4,congruent,,,,,,,,,,,,,,,,,,,,,,0,32,32,37,,,,,,,,,,,,,,,,,,,,,,,,,,,,,,,,,,,,,,,,,,,,,,511.0549752999941,1.013203099995735,512.0611189999909,512.1445863999979,512.944141,513.0442057999899,513.0442057999899,513.0442057999899,right,1,0.7665036000107648,,,,,,,,,,,,,,,,,,,,,,,,,,,,,,,,,,,,,006,001,2023-11-16_14h55.58.720,ETproject_Chi_2023.1.1,2023.1.1,59.850851677642055,
59,Month,五月,四月,,Hori,late,left,image/Chi_late.png,"[-0.4, 0]","[0.4, 0]",1,incongruent,,,,,,,,,,,,,,,,,,,,,,0,33,33,12,,,,,,,,,,,,,,,,,,,,,,,,,,,,,,,,,,,,,,,,,,,,,,513.836358799992,1.0116068000061205,514.8435390999948,514.9271836999978,515.7265148000006,515.8265508999903,515.8265508999903,515.8265508999903,left,1,0.8809318000130588,,,,,,,,,,,,,,,,,,,,,,,,,,,,,,,,,,,,,006,001,2023-11-16_14h55.58.720,ETproject_Chi_2023.1.1,2023.1.1,59.850851677642055,
34,Month,四月,六月,,Vert,late,down,image/Chi_late.png,"[0, 0.4]","[0, -0.4]",2,congruent,,,,,,,,,,,,,,,,,,,,,,0,34,34,38,,,,,,,,,,,,,,,,,,,,,,,,,,,,,,,,,,,,,,,,,,,,,,516.731093800001,1.015559999999823,517.7426628999965,517.8258636999963,518.6257025999948,518.7255972999992,518.7255972999992,518.7255972999992,down,1,0.8056680000008782,,,,,,,,,,,,,,,,,,,,,,,,,,,,,,,,,,,,,006,001,2023-11-16_14h55.58.720,ETproject_Chi_2023.1.1,2023.1.1,59.850851677642055,
142,Week,星期日,星期四,,Vert,early,down,image/Chi_early.png,"[0, 0.4]","[0, -0.4]",3,incongruent,,,,,,,,,,,,,,,,,,,,,,0,35,35,35,,,,,,,,,,,,,,,,,,,,,,,,,,,,,,,,,,,,,,,,,,,,,,519.568117399991,1.0140602000028593,520.5748922999919,520.6582251999935,521.457878199988,521.5580488999985,521.5580488999985,521.5580488999985,down,1,1.0044021000067005,,,,,,,,,,,,,,,,,,,,,,,,,,,,,,,,,,,,,006,001,2023-11-16_14h55.58.720,ETproject_Chi_2023.1.1,2023.1.1,59.850851677642055,
46,Month,八月,六月,,Hori,early,right,image/Chi_early.png,"[-0.4, 0]","[0.4, 0]",2,incongruent,,,,,,,,,,,,,,,,,,,,,,0,36,36,6,,,,,,,,,,,,,,,,,,,,,,,,,,,,,,,,,,,,,,,,,,,,,,522.5997199999983,1.0125900999992155,523.6074496999936,523.6906842999888,524.4905444999895,524.5903911999922,524.5903911999922,524.5903911999922,right,1,0.8212346999935107,,,,,,,,,,,,,,,,,,,,,,,,,,,,,,,,,,,,,006,001,2023-11-16_14h55.58.720,ETproject_Chi_2023.1.1,2023.1.1,59.850851677642055,
68,Month,十月 ,八月,,Vert,early,down,image/Chi_early.png,"[0, 0.4]","[0, -0.4]",2,incongruent,,,,,,,,,,,,,,,,,,,,,,0,37,37,48,,,,,,,,,,,,,,,,,,,,,,,,,,,,,,,,,,,,,,,,,,,,,,525.4494233000005,1.0117259999969974,526.4563098999934,526.5398028999916,527.3394913999946,527.4393509999936,527.4393509999936,527.4393509999936,down,1,0.8110427999927197,,,,,,,,,,,,,,,,,,,,,,,,,,,,,,,,,,,,,006,001,2023-11-16_14h55.58.720,ETproject_Chi_2023.1.1,2023.1.1,59.850851677642055,
99,Week,星期三 ,星期五,,Hori,early,left,image/Chi_early.png,"[-0.4, 0]","[0.4, 0]",2,congruent,,,,,,,,,,,,,,,,,,,,,,0,38,38,3,,,,,,,,,,,,,,,,,,,,,,,,,,,,,,,,,,,,,,,,,,,,,,528.2793696000008,1.0137781000084942,529.2889369999903,529.3721068000013,530.1716940999904,530.2718819000002,530.2718819000002,530.2718819000002,left,1,0.9870452000031946,,,,,,,,,,,,,,,,,,,,,,,,,,,,,,,,,,,,,006,001,2023-11-16_14h55.58.720,ETproject_Chi_2023.1.1,2023.1.1,59.850851677642055,
29,Month,五月,九月 ,,Vert,late,down,image/Chi_late.png,"[0, 0.4]","[0, -0.4]",4,congruent,,,,,,,,,,,,,,,,,,,,,,0,39,39,21,,,,,,,,,,,,,,,,,,,,,,,,,,,,,,,,,,,,,,,,,,,,,,531.2958543999994,0.9991792000073474,532.3045049999928,532.3876667000004,533.1874051999912,533.2874759999977,533.2874759999977,533.2874759999977,down,1,0.8441500000044471,,,,,,,,,,,,,,,,,,,,,,,,,,,,,,,,,,,,,006,001,2023-11-16_14h55.58.720,ETproject_Chi_2023.1.1,2023.1.1,59.850851677642055,
21,Month,五月,九月 ,,Vert,early,up,image/Chi_early.png,"[0, 0.4]","[0, -0.4]",4,congruent,,,,,,,,,,,,,,,,,,,,,,0,40,40,46,,,,,,,,,,,,,,,,,,,,,,,,,,,,,,,,,,,,,,,,,,,,,,534.1594398000016,0.999092500002007,535.1702091999905,535.2535715999984,536.053164699988,536.1533006999962,536.1533006999962,536.1533006999962,up,1,0.8409801999951014,,,,,,,,,,,,,,,,,,,,,,,,,,,,,,,,,,,,,006,001,2023-11-16_14h55.58.720,ETproject_Chi_2023.1.1,2023.1.1,59.850851677642055,
11,Month,十一月 ,十二月,,Hori,early,left,image/Chi_early.png,"[-0.4, 0]","[0.4, 0]",1,congruent,,,,,,,,,,,,,,,,,,,,,,0,41,41,28,,,,,,,,,,,,,,,,,,,,,,,,,,,,,,,,,,,,,,,,,,,,,,537.0297667999985,1.0119101000018418,538.0358582999907,538.119139699993,538.9189121999952,539.0191768999939,539.0191768999939,539.0191768999939,left,1,0.9606273999961559,,,,,,,,,,,,,,,,,,,,,,,,,,,,,,,,,,,,,006,001,2023-11-16_14h55.58.720,ETproject_Chi_2023.1.1,2023.1.1,59.850851677642055,
108,Week,星期五,星期六,,Hori,late,right,image/Chi_late.png,"[-0.4, 0]","[0.4, 0]",1,congruent,,,,,,,,,,,,,,,,,,,,,,0,42,42,1,,,,,,,,,,,,,,,,,,,,,,,,,,,,,,,,,,,,,,,,,,,,,,540.0115077999944,1.012913300000946,541.0183657000016,541.1015650999907,541.9014702999993,542.0014020999952,542.0014020999952,542.0014020999952,right,1,0.8178582999971695,,,,,,,,,,,,,,,,,,,,,,,,,,,,,,,,,,,,,006,001,2023-11-16_14h55.58.720,ETproject_Chi_2023.1.1,2023.1.1,59.850851677642055,
6,Month,六月,九月 ,,Hori,early,left,image/Chi_early.png,"[-0.4, 0]","[0.4, 0]",3,congruent,,,,,,,,,,,,,,,,,,,,,,0,43,43,25,,,,,,,,,,,,,,,,,,,,,,,,,,,,,,,,,,,,,,,,,,,,,,543.8586352999992,1.014850599996862,544.8669316000014,544.9503211999981,545.7500143999932,545.8501805999986,545.8501805999986,545.8501805999986,left,1,0.8162287000013748,,,,,,,,,,,,,,,,,,,,,,,,,,,,,,,,,,,,,006,001,2023-11-16_14h55.58.720,ETproject_Chi_2023.1.1,2023.1.1,59.850851677642055,
43,Month,十月 ,七月,,Hori,early,right,image/Chi_early.png,"[-0.4, 0]","[0.4, 0]",3,incongruent,,,,,,,,,,,,,,,,,,,,,,0,44,44,7,,,,,,,,,,,,,,,,,,,,,,,,,,,,,,,,,,,,,,,,,,,,,,546.6885551000014,1.0147899000003235,547.6994024000014,547.7827149999939,548.5823759999912,548.6824817000015,548.6824817000015,548.6824817000015,right,1,1.0733022000058554,,,,,,,,,,,,,,,,,,,,,,,,,,,,,,,,,,,,,006,001,2023-11-16_14h55.58.720,ETproject_Chi_2023.1.1,2023.1.1,59.850851677642055,
126,Week,星期五,星期二,,Hori,early,right,image/Chi_early.png,"[-0.4, 0]","[0.4, 0]",3,incongruent,,,,,,,,,,,,,,,,,,,,,,0,45,45,17,,,,,,,,,,,,,,,,,,,,,,,,,,,,,,,,,,,,,,,,,,,,,,549.7880634999892,1.01371260000451,550.7982594999921,550.8817910999933,551.6813809000014,551.7813335999963,551.7813335999963,551.7813335999963,right,1,0.8450977000029525,,,,,,,,,,,,,,,,,,,,,,,,,,,,,,,,,,,,,006,001,2023-11-16_14h55.58.720,ETproject_Chi_2023.1.1,2023.1.1,59.850851677642055,
126,Week,星期四,星期二,,Hori,early,right,image/Chi_early.png,"[-0.4, 0]","[0.4, 0]",2,incongruent,,,,,,,,,,,,,,,,,,,,,,0,46,46,24,,,,,,,,,,,,,,,,,,,,,,,,,,,,,,,,,,,,,,,,,,,,,,552.6551557999919,1.0126705000002403,553.6641692999983,553.7473682999989,554.5471460999979,554.6473540000006,554.6473540000006,554.6473540000006,right,1,0.8758207000064431,,,,,,,,,,,,,,,,,,,,,,,,,,,,,,,,,,,,,006,001,2023-11-16_14h55.58.720,ETproject_Chi_2023.1.1,2023.1.1,59.850851677642055,
21,Month,十月 ,十一月 ,,Hori,late,right,image/Chi_late.png,"[-0.4, 0]","[0.4, 0]",1,congruent,,,,,,,,,,,,,,,,,,,,,,0,47,47,5,,,,,,,,,,,,,,,,,,,,,,,,,,,,,,,,,,,,,,,,,,,,,,555.5633578999987,1.0100055000075372,556.563127299989,556.6465626999998,557.4461176999903,557.5460552000004,557.5460552000004,557.5460552000004,right,1,0.7287921000097413,,,,,,,,,,,,,,,,,,,,,,,,,,,,,,,,,,,,,006,001,2023-11-16_14h55.58.720,ETproject_Chi_2023.1.1,2023.1.1,59.850851677642055,
57,Month,六月,三月,,Vert,early,down,image/Chi_early.png,"[0, 0.4]","[0, -0.4]",3,incongruent,,,,,,,,,,,,,,,,,,,,,,0,48,48,4,,,,,,,,,,,,,,,,,,,,,,,,,,,,,,,,,,,,,,,,,,,,,,558.3071224999876,0.999145599998883,559.3124930999911,559.395811800001,560.195430199994,560.2952376999892,560.2952376999892,560.2952376999892,down,1,1.0036230999976397,,,,,,,,,,,,,,,,,,,,,,,,,,,,,,,,,,,,,006,001,2023-11-16_14h55.58.720,ETproject_Chi_2023.1.1,2023.1.1,59.850851677642055,
65,Month,七月,五月,,Vert,early,down,image/Chi_early.png,"[0, 0.4]","[0, -0.4]",2,incongruent,,,,,,,,,,,,,,,,,,,,,,0,49,49,11,,,,,,,,,,,,,,,,,,,,,,,,,,,,,,,,,,,,,,,,,,,,,,561.332499799988,0.9990068999904906,562.3446218999889,562.4277272999898,563.2274190999888,563.3276079999923,563.3276079999923,563.3276079999923,down,1,0.8274168000061763,,,,,,,,,,,,,,,,,,,,,,,,,,,,,,,,,,,,,006,001,2023-11-16_14h55.58.720,ETproject_Chi_2023.1.1,2023.1.1,59.850851677642055,
,,,,,,,,,,,,,,,,,,,,,,,,,,,,,,,,,,,,,,,,,,,,,,,,,,,,,,,,,,,,,,,,,,,,,,,,,,,,,,,,,,,,,,,,,,,,,,,,,,,,,,,,,,,,,,,,564.1775873000006,564.1775873000006,space,2.465627500001574,,,,,,,,,,,,,,,006,001,2023-11-16_14h55.58.720,ETproject_Chi_2023.1.1,2023.1.1,59.850851677642055,
,,,,,,,,,,,,,Spring 1.jpg,这是春天吗？,是,Left,Break_material/Image/Spring 1.jpg,,,,,,,,,,,,,,,,,,,,,0,0,0,0,,,,,,,,,,,,,,,,,,,,,,,,,,,,,,,,,,,,,,,,,,,,,,,,,,,,,,,,,566.9176502999908,570.6451488999883,570.9249699999928,572.657916600001,572.657916600001,572.657916600001,572.657916600001,left,0,0.46505830000387505,,,,,,,,,,,,,,,,,,,,,,,006,001,2023-11-16_14h55.58.720,ETproject_Chi_2023.1.1,2023.1.1,59.850851677642055,
,,,,,,,,,,,,,Spring 5.jpg,这是冬天吗？,否,Right,Break_material/Image/Spring 5.jpg,,,,,,,,,,,,,,,,,,,,,0,1,1,4,,,,,,,,,,,,,,,,,,,,,,,,,,,,,,,,,,,,,,,,,,,,,,,,,,,,,,,,,573.61749769999,577.127218900001,577.6228113999969,579.1391242999962,579.1391242999962,579.1391242999962,579.1391242999962,right,0,0.3511090999963926,,,,,,,,,,,,,,,,,,,,,,,006,001,2023-11-16_14h55.58.720,ETproject_Chi_2023.1.1,2023.1.1,59.850851677642055,
,,,,,,,,,,,,,Spring 4.jpg,这是秋天吗？,否,Right,Break_material/Image/Spring 4.jpg,,,,,,,,,,,,,,,,,,,,,0,2,2,3,,,,,,,,,,,,,,,,,,,,,,,,,,,,,,,,,,,,,,,,,,,,,,,,,,,,,,,,,579.8854092999973,583.50801949999,583.8872330000013,585.5199296999926,585.5199296999926,585.5199296999926,585.5199296999926,right,0,0.3950652000057744,,,,,,,,,,,,,,,,,,,,,,,006,001,2023-11-16_14h55.58.720,ETproject_Chi_2023.1.1,2023.1.1,59.850851677642055,
,,,,,,,,,,,,,Spring 3.jpg,这是夏天吗？,否,Right,Break_material/Image/Spring 3.jpg,,,,,,,,,,,,,,,,,,,,,0,3,3,2,,,,,,,,,,,,,,,,,,,,,,,,,,,,,,,,,,,,,,,,,,,,,,,,,,,,,,,,,586.0098186999967,589.922195399995,590.0185552999901,591.934531699997,591.934531699997,591.934531699997,591.934531699997,right,0,0.8368040000059409,,,,,,,,,,,,,,,,,,,,,,,006,001,2023-11-16_14h55.58.720,ETproject_Chi_2023.1.1,2023.1.1,59.850851677642055,
,,,,,,,,,,,,,Spring 2.jpg,这是冬天吗？,否,Right,Break_material/Image/Spring 2.jpg,,,,,,,,,,,,,,,,,,,,,0,4,4,1,,,,,,,,,,,,,,,,,,,,,,,,,,,,,,,,,,,,,,,,,,,,,,,,,,,,,,,,,592.8669325999945,596.7865183999966,596.8664212000003,598.7989086000016,598.7989086000016,598.7989086000016,598.7989086000016,right,0,0.37973210000200197,,,,,,,,,,,,,,,,,,,,,,,006,001,2023-11-16_14h55.58.720,ETproject_Chi_2023.1.1,2023.1.1,59.850851677642055,
,,,,,,,,,,,,,,,,,,,,,,,,,,,,,,,,,,,,,,,,,,,,,,,,,,,,,,,,,,,,,,,,,,,,,,,,,,,,,,,,,,,,,,,,,,,,,,,,,,,,,,,,,,,,,,,,,,,,599.1989467999956,599.1989467999956,space,1.8044694000127492,,,,,,,,,,,006,001,2023-11-16_14h55.58.720,ETproject_Chi_2023.1.1,2023.1.1,59.850851677642055,
47,Month,五月,二月,,Hori,late,left,image/Chi_late.png,"[-0.4, 0]","[0.4, 0]",3,incongruent,,,,,,,,,,,,,,,,,,,,,,,,,,,,,,0,0,0,10,,,,,,,,,,,,,,,,,,,,,,,,,,,,,,,,,,,,,,601.0558459999884,1.0002496000088286,602.0645554999937,602.1314885999891,602.9309948000009,603.0309559999878,603.0309559999878,603.0309559999878,left,1,0.8112851000041701,,,,,,,,,,,,,,,,,,,,,,,,,,,,,,,,,,,,,006,001,2023-11-16_14h55.58.720,ETproject_Chi_2023.1.1,2023.1.1,59.850851677642055,
143,Week,星期日,星期五,,Vert,early,down,image/Chi_early.png,"[0, 0.4]","[0, -0.4]",2,incongruent,,,,,,,,,,,,,,,,,,,,,,,,,,,,,,0,1,1,22,,,,,,,,,,,,,,,,,,,,,,,,,,,,,,,,,,,,,,603.8711246999883,1.0155161000002408,604.8803569000011,604.9637016999914,605.7632557999896,605.8633506999904,605.8633506999904,605.8633506999904,down,1,0.8762768000015058,,,,,,,,,,,,,,,,,,,,,,,,,,,,,,,,,,,,,006,001,2023-11-16_14h55.58.720,ETproject_Chi_2023.1.1,2023.1.1,59.850851677642055,
38,Month,十月 ,六月,,Hori,early,right,image/Chi_early.png,"[-0.4, 0]","[0.4, 0]",4,incongruent,,,,,,,,,,,,,,,,,,,,,,,,,,,,,,0,2,2,18,,,,,,,,,,,,,,,,,,,,,,,,,,,,,,,,,,,,,,606.7688209999906,1.0144710000022314,607.779254699999,607.8627147999941,608.6623745999968,608.7624557999952,608.7624557999952,608.7624557999952,right,1,0.993058199994266,,,,,,,,,,,,,,,,,,,,,,,,,,,,,,,,,,,,,006,001,2023-11-16_14h55.58.720,ETproject_Chi_2023.1.1,2023.1.1,59.850851677642055,
11,Month,一月,三月,,Hori,late,right,image/Chi_late.png,"[-0.4, 0]","[0.4, 0]",2,congruent,,,,,,,,,,,,,,,,,,,,,,,,,,,,,,0,3,3,5,,,,,,,,,,,,,,,,,,,,,,,,,,,,,,,,,,,,,,609.79030529999,1.0113560000027064,610.7949770999985,610.8783602999902,611.6779618,611.7780679999996,611.7780679999996,611.7780679999996,right,1,0.6968535000050906,,,,,,,,,,,,,,,,,,,,,,,,,,,,,,,,,,,,,006,001,2023-11-16_14h55.58.720,ETproject_Chi_2023.1.1,2023.1.1,59.850851677642055,
127,Week,星期四,星期三 ,,Hori,early,right,image/Chi_early.png,"[-0.4, 0]","[0.4, 0]",1,incongruent,,,,,,,,,,,,,,,,,,,,,,,,,,,,,,0,4,4,48,,,,,,,,,,,,,,,,,,,,,,,,,,,,,,,,,,,,,,612.5060016999923,1.0109831000008853,613.5107035999972,613.5942356999876,614.3937899000011,614.4938144999905,614.4938144999905,614.4938144999905,right,1,0.7091085000138264,,,,,,,,,,,,,,,,,,,,,,,,,,,,,,,,,,,,,006,001,2023-11-16_14h55.58.720,ETproject_Chi_2023.1.1,2023.1.1,59.850851677642055,
50,Month,七月,六月,,Hori,early,right,image/Chi_early.png,"[-0.4, 0]","[0.4, 0]",1,incongruent,,,,,,,,,,,,,,,,,,,,,,,,,,,,,,0,5,5,28,,,,,,,,,,,,,,,,,,,,,,,,,,,,,,,,,,,,,,615.2352868000016,1.012639999986277,616.2431122999988,616.3266651000013,617.1262072999962,617.2262559999945,617.2262559999945,617.2262559999945,right,1,0.8087303000065731,,,,,,,,,,,,,,,,,,,,,,,,,,,,,,,,,,,,,006,001,2023-11-16_14h55.58.720,ETproject_Chi_2023.1.1,2023.1.1,59.850851677642055,
43,Month,五月,三月,,Hori,early,right,image/Chi_early.png,"[-0.4, 0]","[0.4, 0]",2,incongruent,,,,,,,,,,,,,,,,,,,,,,,,,,,,,,0,6,6,16,,,,,,,,,,,,,,,,,,,,,,,,,,,,,,,,,,,,,,618.0635728999914,1.0155410000006668,619.0755457999912,619.1588966999989,619.9586788999877,620.0587350999995,620.0587350999995,620.0587350999995,right,1,0.7198955000058049,,,,,,,,,,,,,,,,,,,,,,,,,,,,,,,,,,,,,006,001,2023-11-16_14h55.58.720,ETproject_Chi_2023.1.1,2023.1.1,59.850851677642055,
52,Month,八月,四月,,Vert,early,down,image/Chi_early.png,"[0, 0.4]","[0, -0.4]",4,incongruent,,,,,,,,,,,,,,,,,,,,,,,,,,,,,,0,7,7,31,,,,,,,,,,,,,,,,,,,,,,,,,,,,,,,,,,,,,,620.8191208999924,1.0107002000004286,621.8247351999889,621.9080321999936,622.7076616999984,622.8077455999883,622.8077455999883,622.8077455999883,down,1,0.8275193000008585,,,,,,,,,,,,,,,,,,,,,,,,,,,,,,,,,,,,,006,001,2023-11-16_14h55.58.720,ETproject_Chi_2023.1.1,2023.1.1,59.850851677642055,
107,Week,星期四,星期日,,Hori,late,right,image/Chi_late.png,"[-0.4, 0]","[0.4, 0]",3,congruent,,,,,,,,,,,,,,,,,,,,,,,,,,,,,,0,8,8,34,,,,,,,,,,,,,,,,,,,,,,,,,,,,,,,,,,,,,,623.669398099999,1.0116065000038361,624.6739743999933,624.7570779999951,625.5567551999993,625.6568834999925,625.6568834999925,625.6568834999925,right,1,1.2174949000036577,,,,,,,,,,,,,,,,,,,,,,,,,,,,,,,,,,,,,006,001,2023-11-16_14h55.58.720,ETproject_Chi_2023.1.1,2023.1.1,59.850851677642055,
64,Month,四月,一月,,Vert,late,up,image/Chi_late.png,"[0, 0.4]","[0, -0.4]",3,incongruent,,,,,,,,,,,,,,,,,,,,,,,,,,,,,,0,9,9,24,,,,,,,,,,,,,,,,,,,,,,,,,,,,,,,,,,,,,,626.9137112999888,1.0117081999924267,627.9226897999906,628.0061961999891,628.8058783000015,628.905648999993,628.905648999993,628.905648999993,up,1,0.9853172000002814,,,,,,,,,,,,,,,,,,,,,,,,,,,,,,,,,,,,,006,001,2023-11-16_14h55.58.720,ETproject_Chi_2023.1.1,2023.1.1,59.850851677642055,
63,Month,十一月 ,七月,,Vert,late,up,image/Chi_late.png,"[0, 0.4]","[0, -0.4]",4,incongruent,,,,,,,,,,,,,,,,,,,,,,,,,,,,,,0,10,10,3,,,,,,,,,,,,,,,,,,,,,,,,,,,,,,,,,,,,,,629.9307225999946,1.0120679000101518,630.9383085000009,631.0216904999979,631.8215140999964,631.9214862999943,631.9214862999943,631.9214862999943,up,1,0.8971727000025567,,,,,,,,,,,,,,,,,,,,,,,,,,,,,,,,,,,,,006,001,2023-11-16_14h55.58.720,ETproject_Chi_2023.1.1,2023.1.1,59.850851677642055,
47,Month,九月 ,七月,,Hori,early,right,image/Chi_early.png,"[-0.4, 0]","[0.4, 0]",2,incongruent,,,,,,,,,,,,,,,,,,,,,,,,,,,,,,0,11,11,23,,,,,,,,,,,,,,,,,,,,,,,,,,,,,,,,,,,,,,632.8493630000012,1.010701400009566,633.8542129999987,633.9374474999931,634.737189499996,634.8371391999972,634.8371391999972,634.8371391999972,right,1,0.8691736000037054,,,,,,,,,,,,,,,,,,,,,,,,,,,,,,,,,,,,,006,001,2023-11-16_14h55.58.720,ETproject_Chi_2023.1.1,2023.1.1,59.850851677642055,
133,Week,星期五,星期二,,Hori,late,left,image/Chi_late.png,"[-0.4, 0]","[0.4, 0]",3,incongruent,,,,,,,,,,,,,,,,,,,,,,,,,,,,,,0,12,12,49,,,,,,,,,,,,,,,,,,,,,,,,,,,,,,,,,,,,,,635.7487199999887,1.010357399994973,636.7531983999943,636.8364857999986,637.6361223999993,637.7361946999881,637.7361946999881,637.7361946999881,left,1,0.8428082000027644,,,,,,,,,,,,,,,,,,,,,,,,,,,,,,,,,,,,,006,001,2023-11-16_14h55.58.720,ETproject_Chi_2023.1.1,2023.1.1,59.850851677642055,
55,Month,七月,五月,,Hori,late,left,image/Chi_late.png,"[-0.4, 0]","[0.4, 0]",2,incongruent,,,,,,,,,,,,,,,,,,,,,,,,,,,,,,0,13,13,11,,,,,,,,,,,,,,,,,,,,,,,,,,,,,,,,,,,,,,638.6068396999908,1.0148760000010952,639.6188082000008,639.7021093999938,640.5018973999977,640.6018685000017,640.6018685000017,640.6018685000017,left,1,0.92129539999587,,,,,,,,,,,,,,,,,,,,,,,,,,,,,,,,,,,,,006,001,2023-11-16_14h55.58.720,ETproject_Chi_2023.1.1,2023.1.1,59.850851677642055,
46,Month,三月,二月,,Hori,early,right,image/Chi_early.png,"[-0.4, 0]","[0.4, 0]",1,incongruent,,,,,,,,,,,,,,,,,,,,,,,,,,,,,,0,14,14,36,,,,,,,,,,,,,,,,,,,,,,,,,,,,,,,,,,,,,,641.5625697999931,1.011592400012887,642.5678517999913,642.6512573999935,643.4508943999972,643.5508971999952,643.5508971999952,643.5508971999952,right,1,0.7162309999985155,,,,,,,,,,,,,,,,,,,,,,,,,,,,,,,,,,,,,006,001,2023-11-16_14h55.58.720,ETproject_Chi_2023.1.1,2023.1.1,59.850851677642055,
61,Month,七月,六月,,Hori,late,left,image/Chi_late.png,"[-0.4, 0]","[0.4, 0]",1,incongruent,,,,,,,,,,,,,,,,,,,,,,,,,,,,,,0,15,15,17,,,,,,,,,,,,,,,,,,,,,,,,,,,,,,,,,,,,,,644.2985283000016,1.0101235000038287,645.300338999994,645.383653500001,646.1833345999912,646.2835612999916,646.2835612999916,646.2835612999916,left,1,0.7350986000092234,,,,,,,,,,,,,,,,,,,,,,,,,,,,,,,,,,,,,006,001,2023-11-16_14h55.58.720,ETproject_Chi_2023.1.1,2023.1.1,59.850851677642055,
9,Month,九月 ,十月 ,,Hori,early,left,image/Chi_early.png,"[-0.4, 0]","[0.4, 0]",1,congruent,,,,,,,,,,,,,,,,,,,,,,,,,,,,,,0,16,16,47,,,,,,,,,,,,,,,,,,,,,,,,,,,,,,,,,,,,,,647.0665586999967,1.0122824999998556,648.0660237999982,648.149350599997,648.9490923999983,649.0491126999987,649.0491126999987,649.0491126999987,left,1,0.7930883999943035,,,,,,,,,,,,,,,,,,,,,,,,,,,,,,,,,,,,,006,001,2023-11-16_14h55.58.720,ETproject_Chi_2023.1.1,2023.1.1,59.850851677642055,
118,Week,星期一,星期三 ,,Vert,late,down,image/Chi_late.png,"[0, 0.4]","[0, -0.4]",2,congruent,,,,,,,,,,,,,,,,,,,,,,,,,,,,,,0,17,17,43,,,,,,,,,,,,,,,,,,,,,,,,,,,,,,,,,,,,,,649.877624899993,1.0108177000074647,650.8816082999983,650.9651249999879,651.7648162999976,651.8648721999925,651.8648721999925,651.8648721999925,down,1,0.8511292000039248,,,,,,,,,,,,,,,,,,,,,,,,,,,,,,,,,,,,,006,001,2023-11-16_14h55.58.720,ETproject_Chi_2023.1.1,2023.1.1,59.850851677642055,
76,Month,十一月 ,十月 ,,Vert,early,down,image/Chi_early.png,"[0, 0.4]","[0, -0.4]",1,incongruent,,,,,,,,,,,,,,,,,,,,,,,,,,,,,,0,18,18,1,,,,,,,,,,,,,,,,,,,,,,,,,,,,,,,,,,,,,,652.7611466999952,1.012858200003393,653.7641757999954,653.8475206000003,654.6472728999943,654.7473096999893,654.7473096999893,654.7473096999893,down,1,1.0393400000029942,,,,,,,,,,,,,,,,,,,,,,,,,,,,,,,,,,,,,006,001,2023-11-16_14h55.58.720,ETproject_Chi_2023.1.1,2023.1.1,59.850851677642055,
33,Month,十一月 ,十二月,,Vert,early,up,image/Chi_early.png,"[0, 0.4]","[0, -0.4]",1,congruent,,,,,,,,,,,,,,,,,,,,,,,,,,,,,,0,19,19,2,,,,,,,,,,,,,,,,,,,,,,,,,,,,,,,,,,,,,,655.8200522999978,1.011740899994038,656.8299620999896,656.9131644000008,657.7130875000003,657.8129771999957,657.8129771999957,657.8129771999957,up,1,0.7898595000006026,,,,,,,,,,,,,,,,,,,,,,,,,,,,,,,,,,,,,006,001,2023-11-16_14h55.58.720,ETproject_Chi_2023.1.1,2023.1.1,59.850851677642055,
107,Week,星期四,星期五,,Hori,late,right,image/Chi_late.png,"[-0.4, 0]","[0.4, 0]",1,congruent,,,,,,,,,,,,,,,,,,,,,,,,,,,,,,0,20,20,19,,,,,,,,,,,,,,,,,,,,,,,,,,,,,,,,,,,,,,659.6393753999873,1.0147159999905853,660.6453069999989,660.7284688999935,661.5283029999991,661.6282681999874,661.6282681999874,661.6282681999874,right,1,0.8069857000082266,,,,,,,,,,,,,,,,,,,,,,,,,,,,,,,,,,,,,006,001,2023-11-16_14h55.58.720,ETproject_Chi_2023.1.1,2023.1.1,59.850851677642055,
79,Month,十一月 ,九月 ,,Vert,late,up,image/Chi_late.png,"[0, 0.4]","[0, -0.4]",2,incongruent,,,,,,,,,,,,,,,,,,,,,,,,,,,,,,0,21,21,0,,,,,,,,,,,,,,,,,,,,,,,,,,,,,,,,,,,,,,662.465589799991,0.9990070999920135,663.4775717999873,663.5609751999873,664.360811999999,664.4607329999999,664.4607329999999,664.4607329999999,up,1,0.8140983000048436,,,,,,,,,,,,,,,,,,,,,,,,,,,,,,,,,,,,,006,001,2023-11-16_14h55.58.720,ETproject_Chi_2023.1.1,2023.1.1,59.850851677642055,
149,Week,星期五,星期四,,Vert,late,up,image/Chi_late.png,"[0, 0.4]","[0, -0.4]",1,incongruent,,,,,,,,,,,,,,,,,,,,,,,,,,,,,,0,22,22,8,,,,,,,,,,,,,,,,,,,,,,,,,,,,,,,,,,,,,,665.3020402999973,1.0118636999977753,666.3100893999945,666.3932672999945,667.1932642999891,667.2931878999952,667.2931878999952,667.2931878999952,up,1,0.8377985999977682,,,,,,,,,,,,,,,,,,,,,,,,,,,,,,,,,,,,,006,001,2023-11-16_14h55.58.720,ETproject_Chi_2023.1.1,2023.1.1,59.850851677642055,
38,Month,五月,六月,,Vert,late,down,image/Chi_late.png,"[0, 0.4]","[0, -0.4]",1,congruent,,,,,,,,,,,,,,,,,,,,,,,,,,,,,,0,23,23,20,,,,,,,,,,,,,,,,,,,,,,,,,,,,,,,,,,,,,,668.1660199999897,1.0137346999981673,669.1757585000014,669.2591492999927,670.0588060000009,670.1588429999974,670.1588429999974,670.1588429999974,down,1,1.0676449000020511,,,,,,,,,,,,,,,,,,,,,,,,,,,,,,,,,,,,,006,001,2023-11-16_14h55.58.720,ETproject_Chi_2023.1.1,2023.1.1,59.850851677642055,
50,Month,六月,二月,,Vert,early,down,image/Chi_early.png,"[0, 0.4]","[0, -0.4]",4,incongruent,,,,,,,,,,,,,,,,,,,,,,,,,,,,,,0,24,24,30,,,,,,,,,,,,,,,,,,,,,,,,,,,,,,,,,,,,,,671.2747369999997,1.0118010000005597,672.2747978999978,672.3582109999988,673.1577766999981,673.2577699999965,673.2577699999965,673.2577699999965,down,1,0.9933307000028435,,,,,,,,,,,,,,,,,,,,,,,,,,,,,,,,,,,,,006,001,2023-11-16_14h55.58.720,ETproject_Chi_2023.1.1,2023.1.1,59.850851677642055,
57,Month,五月,一月,,Vert,late,up,image/Chi_late.png,"[0, 0.4]","[0, -0.4]",4,incongruent,,,,,,,,,,,,,,,,,,,,,,,,,,,,,,0,25,25,25,,,,,,,,,,,,,,,,,,,,,,,,,,,,,,,,,,,,,,674.2901405999874,1.0122370999888517,675.2903634999966,675.3738096000016,676.1734904999903,676.2734109999874,676.2734109999874,676.2734109999874,up,1,0.7458330999943428,,,,,,,,,,,,,,,,,,,,,,,,,,,,,,,,,,,,,006,001,2023-11-16_14h55.58.720,ETproject_Chi_2023.1.1,2023.1.1,59.850851677642055,
31,Month,七月,十一月 ,,Vert,late,down,image/Chi_late.png,"[0, 0.4]","[0, -0.4]",4,congruent,,,,,,,,,,,,,,,,,,,,,,,,,,,,,,0,26,26,6,,,,,,,,,,,,,,,,,,,,,,,,,,,,,,,,,,,,,,677.0475100999902,1.011815799996839,678.0560960000003,678.1394254999905,678.9392814999883,679.0392487999925,679.0392487999925,679.0392487999925,down,1,0.7231183999974746,,,,,,,,,,,,,,,,,,,,,,,,,,,,,,,,,,,,,006,001,2023-11-16_14h55.58.720,ETproject_Chi_2023.1.1,2023.1.1,59.850851677642055,
122,Week,星期五,星期六,,Vert,late,down,image/Chi_late.png,"[0, 0.4]","[0, -0.4]",1,congruent,,,,,,,,,,,,,,,,,,,,,,,,,,,,,,0,27,27,38,,,,,,,,,,,,,,,,,,,,,,,,,,,,,,,,,,,,,,679.7948385999916,1.014527099992847,680.8053780999908,680.8885793999943,681.6882713999948,681.7883736999938,681.7883736999938,681.7883736999938,down,1,0.8224879000044893,,,,,,,,,,,,,,,,,,,,,,,,,,,,,,,,,,,,,006,001,2023-11-16_14h55.58.720,ETproject_Chi_2023.1.1,2023.1.1,59.850851677642055,
12,Month,二月,四月,,Hori,late,right,image/Chi_late.png,"[-0.4, 0]","[0.4, 0]",2,congruent,,,,,,,,,,,,,,,,,,,,,,,,,,,,,,0,28,28,21,,,,,,,,,,,,,,,,,,,,,,,,,,,,,,,,,,,,,,682.6465801999875,1.0111945000098785,683.654509999993,683.7376719999884,684.5374336999957,684.6375278999913,684.6375278999913,684.6375278999913,right,1,0.6775540999951772,,,,,,,,,,,,,,,,,,,,,,,,,,,,,,,,,,,,,006,001,2023-11-16_14h55.58.720,ETproject_Chi_2023.1.1,2023.1.1,59.850851677642055,
32,Month,十月 ,十一月 ,,Vert,early,up,image/Chi_early.png,"[0, 0.4]","[0, -0.4]",1,congruent,,,,,,,,,,,,,,,,,,,,,,,,,,,,,,0,29,29,44,,,,,,,,,,,,,,,,,,,,,,,,,,,,,,,,,,,,,,685.3516626999917,1.0113064000033773,686.3534864999965,686.4368861999974,687.2365881000005,687.3365772999969,687.3365772999969,687.3365772999969,up,1,0.8904022999922745,,,,,,,,,,,,,,,,,,,,,,,,,,,,,,,,,,,,,006,001,2023-11-16_14h55.58.720,ETproject_Chi_2023.1.1,2023.1.1,59.850851677642055,
43,Month,七月,三月,,Hori,late,left,image/Chi_late.png,"[-0.4, 0]","[0.4, 0]",4,incongruent,,,,,,,,,,,,,,,,,,,,,,,,,,,,,,0,30,30,39,,,,,,,,,,,,,,,,,,,,,,,,,,,,,,,,,,,,,,688.2657915000018,1.01547379999829,689.2690617999906,689.3525150999922,690.1523443999904,690.2522274999938,690.2522274999938,690.2522274999938,left,1,0.5744689999992261,,,,,,,,,,,,,,,,,,,,,,,,,,,,,,,,,,,,,006,001,2023-11-16_14h55.58.720,ETproject_Chi_2023.1.1,2023.1.1,59.850851677642055,
58,Month,十月 ,八月,,Hori,late,left,image/Chi_late.png,"[-0.4, 0]","[0.4, 0]",2,incongruent,,,,,,,,,,,,,,,,,,,,,,,,,,,,,,0,31,31,26,,,,,,,,,,,,,,,,,,,,,,,,,,,,,,,,,,,,,,690.8584708999988,1.0131913000077475,691.8682509999926,691.9517811999976,692.7513866999943,692.8513299999904,692.8513299999904,692.8513299999904,left,1,0.7276263000094332,,,,,,,,,,,,,,,,,,,,,,,,,,,,,,,,,,,,,006,001,2023-11-16_14h55.58.720,ETproject_Chi_2023.1.1,2023.1.1,59.850851677642055,
47,Month,十一月 ,七月,,Hori,late,left,image/Chi_late.png,"[-0.4, 0]","[0.4, 0]",4,incongruent,,,,,,,,,,,,,,,,,,,,,,,,,,,,,,0,32,32,37,,,,,,,,,,,,,,,,,,,,,,,,,,,,,,,,,,,,,,694.6074593999947,1.0144317999947816,695.6170902000013,695.7004449999949,696.5001357000001,696.6001192999975,696.6001192999975,696.6001192999975,left,1,0.6186804000026314,,,,,,,,,,,,,,,,,,,,,,,,,,,,,,,,,,,,,006,001,2023-11-16_14h55.58.720,ETproject_Chi_2023.1.1,2023.1.1,59.850851677642055,
51,Month,七月,三月,,Vert,early,down,image/Chi_early.png,"[0, 0.4]","[0, -0.4]",4,incongruent,,,,,,,,,,,,,,,,,,,,,,,,,,,,,,0,33,33,12,,,,,,,,,,,,,,,,,,,,,,,,,,,,,,,,,,,,,,697.2580419000005,1.0141892999963602,698.2661916999932,698.3494599999976,699.1491317999898,699.2492837999889,699.2492837999889,699.2492837999889,down,1,0.8734342000097968,,,,,,,,,,,,,,,,,,,,,,,,,,,,,,,,,,,,,006,001,2023-11-16_14h55.58.720,ETproject_Chi_2023.1.1,2023.1.1,59.850851677642055,
52,Month,十月 ,七月,,Hori,late,left,image/Chi_late.png,"[-0.4, 0]","[0.4, 0]",3,incongruent,,,,,,,,,,,,,,,,,,,,,,,,,,,,,,0,34,34,41,,,,,,,,,,,,,,,,,,,,,,,,,,,,,,,,,,,,,,700.1597016000014,1.0113094999978784,701.1652541999938,701.2485895999998,702.0483321999927,702.1485130999936,702.1485130999936,702.1485130999936,left,1,0.7418613000045298,,,,,,,,,,,,,,,,,,,,,,,,,,,,,,,,,,,,,006,001,2023-11-16_14h55.58.720,ETproject_Chi_2023.1.1,2023.1.1,59.850851677642055,
119,Week,星期二,星期四,,Vert,late,down,image/Chi_late.png,"[0, 0.4]","[0, -0.4]",2,congruent,,,,,,,,,,,,,,,,,,,,,,,,,,,,,,0,35,35,45,,,,,,,,,,,,,,,,,,,,,,,,,,,,,,,,,,,,,,702.9251444999973,1.0106176999979652,703.9309718000004,704.014445599998,704.8139998999977,704.9140959999932,704.9140959999932,704.9140959999932,down,1,0.7213236999959918,,,,,,,,,,,,,,,,,,,,,,,,,,,,,,,,,,,,,006,001,2023-11-16_14h55.58.720,ETproject_Chi_2023.1.1,2023.1.1,59.850851677642055,
15,Month,七月,十一月 ,,Hori,late,right,image/Chi_late.png,"[-0.4, 0]","[0.4, 0]",4,congruent,,,,,,,,,,,,,,,,,,,,,,,,,,,,,,0,36,36,15,,,,,,,,,,,,,,,,,,,,,,,,,,,,,,,,,,,,,,705.6727781999944,1.011625400002231,706.6799892999989,706.763441099989,707.5630512999924,707.6633370999916,707.6633370999916,707.6633370999916,right,1,0.6762289999896893,,,,,,,,,,,,,,,,,,,,,,,,,,,,,,,,,,,,,006,001,2023-11-16_14h55.58.720,ETproject_Chi_2023.1.1,2023.1.1,59.850851677642055,
3,Month,三月,五月,,Hori,early,left,image/Chi_early.png,"[-0.4, 0]","[0.4, 0]",2,congruent,,,,,,,,,,,,,,,,,,,,,,,,,,,,,,0,37,37,29,,,,,,,,,,,,,,,,,,,,,,,,,,,,,,,,,,,,,,708.3706987999904,1.0151509999996051,709.3792086999892,709.4625798999914,710.2621927,710.3622860999894,710.3622860999894,710.3622860999894,left,1,0.6243864000134636,,,,,,,,,,,,,,,,,,,,,,,,,,,,,,,,,,,,,006,001,2023-11-16_14h55.58.720,ETproject_Chi_2023.1.1,2023.1.1,59.850851677642055,
8,Month,八月,十二月,,Hori,early,left,image/Chi_early.png,"[-0.4, 0]","[0.4, 0]",4,congruent,,,,,,,,,,,,,,,,,,,,,,,,,,,,,,0,38,38,7,,,,,,,,,,,,,,,,,,,,,,,,,,,,,,,,,,,,,,711.0196796999953,1.0121893000032287,712.028330599991,712.1117402999953,712.9114006000018,713.0113490999938,713.0113490999938,713.0113490999938,left,1,0.7109984999988228,,,,,,,,,,,,,,,,,,,,,,,,,,,,,,,,,,,,,006,001,2023-11-16_14h55.58.720,ETproject_Chi_2023.1.1,2023.1.1,59.850851677642055,
136,Week,星期六,星期五,,Hori,late,left,image/Chi_late.png,"[-0.4, 0]","[0.4, 0]",1,incongruent,,,,,,,,,,,,,,,,,,,,,,,,,,,,,,0,39,39,13,,,,,,,,,,,,,,,,,,,,,,,,,,,,,,,,,,,,,,713.7569240999874,1.0107365000003483,714.7607942999894,714.843968000001,715.6438310999947,715.74393099999,715.74393099999,715.74393099999,left,1,0.6505788000067696,,,,,,,,,,,,,,,,,,,,,,,,,,,,,,,,,,,,,006,001,2023-11-16_14h55.58.720,ETproject_Chi_2023.1.1,2023.1.1,59.850851677642055,
30,Month,三月,六月,,Vert,late,down,image/Chi_late.png,"[0, 0.4]","[0, -0.4]",3,congruent,,,,,,,,,,,,,,,,,,,,,,,,,,,,,,0,40,40,14,,,,,,,,,,,,,,,,,,,,,,,,,,,,,,,,,,,,,,716.4338569999964,1.0147892999957548,717.4431474999874,717.5264502999926,718.326239099988,718.4264046999888,718.4264046999888,718.4264046999888,down,1,0.6961695999925723,,,,,,,,,,,,,,,,,,,,,,,,,,,,,,,,,,,,,006,001,2023-11-16_14h55.58.720,ETproject_Chi_2023.1.1,2023.1.1,59.850851677642055,
68,Month,三月,二月,,Vert,early,down,image/Chi_early.png,"[0, 0.4]","[0, -0.4]",1,incongruent,,,,,,,,,,,,,,,,,,,,,,,,,,,,,,0,41,41,46,,,,,,,,,,,,,,,,,,,,,,,,,,,,,,,,,,,,,,719.1527711999952,1.0113358000089647,720.1589396999916,720.2423061000009,721.042160500001,721.1419988999987,721.1419988999987,721.1419988999987,down,1,0.8371221999987029,,,,,,,,,,,,,,,,,,,,,,,,,,,,,,,,,,,,,006,001,2023-11-16_14h55.58.720,ETproject_Chi_2023.1.1,2023.1.1,59.850851677642055,
122,Week,星期五,星期日,,Vert,late,down,image/Chi_late.png,"[0, 0.4]","[0, -0.4]",2,congruent,,,,,,,,,,,,,,,,,,,,,,,,,,,,,,0,42,42,40,,,,,,,,,,,,,,,,,,,,,,,,,,,,,,,,,,,,,,722.0251858999982,1.0111345000041183,723.0246866999951,723.1081101000018,723.9077405999997,724.0076805999997,724.0076805999997,724.0076805999997,down,1,0.9233949999907054,,,,,,,,,,,,,,,,,,,,,,,,,,,,,,,,,,,,,006,001,2023-11-16_14h55.58.720,ETproject_Chi_2023.1.1,2023.1.1,59.850851677642055,
128,Week,星期日,星期四,,Hori,early,right,image/Chi_early.png,"[-0.4, 0]","[0.4, 0]",3,incongruent,,,,,,,,,,,,,,,,,,,,,,,,,,,,,,0,43,43,35,,,,,,,,,,,,,,,,,,,,,,,,,,,,,,,,,,,,,,724.9680286999937,1.0119334000046365,725.9738130999904,726.0570413999958,726.8568656999996,726.9567268999963,726.9567268999963,726.9567268999963,right,1,0.8064922000048682,,,,,,,,,,,,,,,,,,,,,,,,,,,,,,,,,,,,,006,001,2023-11-16_14h55.58.720,ETproject_Chi_2023.1.1,2023.1.1,59.850851677642055,
106,Week,星期三 ,星期五,,Hori,late,right,image/Chi_late.png,"[-0.4, 0]","[0.4, 0]",2,congruent,,,,,,,,,,,,,,,,,,,,,,,,,,,,,,0,44,44,33,,,,,,,,,,,,,,,,,,,,,,,,,,,,,,,,,,,,,,727.80215399999,1.010537199996179,728.8060797999933,728.8894465999911,729.6891818000004,729.7892621999927,729.7892621999927,729.7892621999927,right,1,0.7343255000014324,,,,,,,,,,,,,,,,,,,,,,,,,,,,,,,,,,,,,006,001,2023-11-16_14h55.58.720,ETproject_Chi_2023.1.1,2023.1.1,59.850851677642055,
32,Month,五月,八月,,Vert,late,down,image/Chi_late.png,"[0, 0.4]","[0, -0.4]",3,congruent,,,,,,,,,,,,,,,,,,,,,,,,,,,,,,0,45,45,9,,,,,,,,,,,,,,,,,,,,,,,,,,,,,,,,,,,,,,730.5634733999905,1.0139308999932837,731.5719190999953,731.6552297000017,732.4551537999942,732.5550163000007,732.5550163000007,732.5550163000007,down,1,0.8161675000010291,,,,,,,,,,,,,,,,,,,,,,,,,,,,,,,,,,,,,006,001,2023-11-16_14h55.58.720,ETproject_Chi_2023.1.1,2023.1.1,59.850851677642055,
105,Week,星期二,星期五,,Hori,late,right,image/Chi_late.png,"[-0.4, 0]","[0.4, 0]",3,congruent,,,,,,,,,,,,,,,,,,,,,,,,,,,,,,0,46,46,42,,,,,,,,,,,,,,,,,,,,,,,,,,,,,,,,,,,,,,733.3975618999975,1.011013900002581,734.4041890999943,734.4876332999993,735.287276499992,735.3873456000001,735.3873456000001,735.3873456000001,right,1,0.6327060000039637,,,,,,,,,,,,,,,,,,,,,,,,,,,,,,,,,,,,,006,001,2023-11-16_14h55.58.720,ETproject_Chi_2023.1.1,2023.1.1,59.850851677642055,
69,Month,十一月 ,九月 ,,Vert,early,down,image/Chi_early.png,"[0, 0.4]","[0, -0.4]",2,incongruent,,,,,,,,,,,,,,,,,,,,,,,,,,,,,,0,47,47,32,,,,,,,,,,,,,,,,,,,,,,,,,,,,,,,,,,,,,,736.0488661999989,1.0113306999992346,737.0535740999912,737.1367395999987,737.9364196999959,738.036401099991,738.036401099991,738.036401099991,down,1,0.8632118000095943,,,,,,,,,,,,,,,,,,,,,,,,,,,,,,,,,,,,,006,001,2023-11-16_14h55.58.720,ETproject_Chi_2023.1.1,2023.1.1,59.850851677642055,
36,Month,八月,四月,,Hori,early,right,image/Chi_early.png,"[-0.4, 0]","[0.4, 0]",4,incongruent,,,,,,,,,,,,,,,,,,,,,,,,,,,,,,0,48,48,27,,,,,,,,,,,,,,,,,,,,,,,,,,,,,,,,,,,,,,738.9232276999974,1.0153957000002265,739.9357663999981,740.0190846999903,740.8188026999997,740.9186876999884,740.9186876999884,740.9186876999884,right,1,0.7893135000049369,,,,,,,,,,,,,,,,,,,,,,,,,,,,,,,,,,,,,006,001,2023-11-16_14h55.58.720,ETproject_Chi_2023.1.1,2023.1.1,59.850851677642055,
42,Month,九月 ,六月,,Hori,early,right,image/Chi_early.png,"[-0.4, 0]","[0.4, 0]",3,incongruent,,,,,,,,,,,,,,,,,,,,,,,,,,,,,,0,49,49,4,,,,,,,,,,,,,,,,,,,,,,,,,,,,,,,,,,,,,,741.7401114999957,1.0144435999973211,742.7515217999899,742.8349439000012,743.6347965999885,743.7347381,743.7347381,743.7347381,right,1,0.8363374000036856,,,,,,,,,,,,,,,,,,,,,,,,,,,,,,,,,,,,,006,001,2023-11-16_14h55.58.720,ETproject_Chi_2023.1.1,2023.1.1,59.850851677642055,
,,,,,,,,,,,,,,,,,,,,,,,,,,,,,,,,,,,,,,,,,,,,,,,,,,,,,,,,,,,,,,,,,,,,,,,,,,,,,,,,,,,,,,,,,,,,,,,,,,,,,,,,,,,,,,,,,,,,,,,,744.601181799997,744.601181799997,space,1.401657599999453,,,,,,,006,001,2023-11-16_14h55.58.720,ETproject_Chi_2023.1.1,2023.1.1,59.850851677642055,
,,,,,,,,,,,,,Spring 2.jpg,这是冬天吗？,否,Right,Break_material/Image/Spring 2.jpg,,,,,,,,,,,,,,,,,,,,,,,,,,,,,0,0,0,1,,,,,,,,,,,,,,,,,,,,,,,,,,,,,,,,,,,,,,,,,,,,,,,,,746.109128799988,750.0197440999909,750.1157796999905,752.0319833999965,752.0319833999965,752.0319833999965,752.0319833999965,right,0,0.475321800011443,,,,,,,,,,,,,,,,,,,,,,,006,001,2023-11-16_14h55.58.720,ETproject_Chi_2023.1.1,2023.1.1,59.850851677642055,
,,,,,,,,,,,,,Spring 3.jpg,这是夏天吗？,否,Right,Break_material/Image/Spring 3.jpg,,,,,,,,,,,,,,,,,,,,,,,,,,,,,0,1,1,2,,,,,,,,,,,,,,,,,,,,,,,,,,,,,,,,,,,,,,,,,,,,,,,,,752.6045293999923,756.5181970999984,756.6136645999941,758.529601199989,758.529601199989,758.529601199989,758.529601199989,right,0,0.5614980000100331,,,,,,,,,,,,,,,,,,,,,,,006,001,2023-11-16_14h55.58.720,ETproject_Chi_2023.1.1,2023.1.1,59.850851677642055,
,,,,,,,,,,,,,Spring 4.jpg,这是秋天吗？,否,Right,Break_material/Image/Spring 4.jpg,,,,,,,,,,,,,,,,,,,,,,,,,,,,,0,2,2,3,,,,,,,,,,,,,,,,,,,,,,,,,,,,,,,,,,,,,,,,,,,,,,,,,759.3405248999916,763.098854099997,763.3447453999979,765.1107690999925,765.1107690999925,765.1107690999925,765.1107690999925,right,0,0.3639952999947127,,,,,,,,,,,,,,,,,,,,,,,006,001,2023-11-16_14h55.58.720,ETproject_Chi_2023.1.1,2023.1.1,59.850851677642055,
,,,,,,,,,,,,,Spring 5.jpg,这是冬天吗？,否,Right,Break_material/Image/Spring 5.jpg,,,,,,,,,,,,,,,,,,,,,,,,,,,,,0,3,3,4,,,,,,,,,,,,,,,,,,,,,,,,,,,,,,,,,,,,,,,,,,,,,,,,,765.9858588999923,769.480630799997,769.992975199988,771.4924155999906,771.4924155999906,771.4924155999906,771.4924155999906,right,0,0.4626459000137402,,,,,,,,,,,,,,,,,,,,,,,006,001,2023-11-16_14h55.58.720,ETproject_Chi_2023.1.1,2023.1.1,59.850851677642055,
,,,,,,,,,,,,,Spring 1.jpg,这是春天吗？,是,Left,Break_material/Image/Spring 1.jpg,,,,,,,,,,,,,,,,,,,,,,,,,,,,,0,4,4,0,,,,,,,,,,,,,,,,,,,,,,,,,,,,,,,,,,,,,,,,,,,,,,,,,772.2004121999926,775.9606419999909,776.2073551999929,777.9732669999939,777.9732669999939,777.9732669999939,777.9732669999939,left,0,0.38935540000966284,,,,,,,,,,,,,,,,,,,,,,,006,001,2023-11-16_14h55.58.720,ETproject_Chi_2023.1.1,2023.1.1,59.850851677642055,
,,,,,,,,,,,,,,,,,,,,,,,,,,,,,,,,,,,,,,,,,,,,,,,,,,,,,,,,,,,,,,,,,,,,,,,,,,,,,,,,,,,,,,,,,,,,,,,,,,,,,,,,,,,,,,,,,,,,,,,,,,,,778.3899392999883,778.3899392999883,space,1.1405220000015106,,,006,001,2023-11-16_14h55.58.720,ETproject_Chi_2023.1.1,2023.1.1,59.850851677642055,
79,Month,三月,二月,,Vert,late,up,image/Chi_late.png,"[0, 0.4]","[0, -0.4]",1,incongruent,,,,,,,,,,,,,,,,,,,,,,,,,,,,,,,,,,,,,,0,0,0,8,,,,,,,,,,,,,,,,,,,,,,,,,,,,,,779.5736870999972,0.9995480999932624,780.5725450999889,780.6557777999988,781.4555536999978,781.5556225999899,781.5556225999899,781.5556225999899,up,1,0.9364041999942856,,,,,,,,,,,,,,,,,,,,,,,,,,,,,,,,,,,,,006,001,2023-11-16_14h55.58.720,ETproject_Chi_2023.1.1,2023.1.1,59.850851677642055,
49,Month,六月,五月,,Hori,early,right,image/Chi_early.png,"[-0.4, 0]","[0.4, 0]",1,incongruent,,,,,,,,,,,,,,,,,,,,,,,,,,,,,,,,,,,,,,0,1,1,20,,,,,,,,,,,,,,,,,,,,,,,,,,,,,,782.5329360999895,1.011450199992396,783.5381480999931,783.6214103999955,784.4212265999959,784.5210481999966,784.5210481999966,784.5210481999966,right,1,0.6818158999958541,,,,,,,,,,,,,,,,,,,,,,,,,,,,,,,,,,,,,006,001,2023-11-16_14h55.58.720,ETproject_Chi_2023.1.1,2023.1.1,59.850851677642055,
139,Week,星期三 ,星期一,,Vert,early,down,image/Chi_early.png,"[0, 0.4]","[0, -0.4]",2,incongruent,,,,,,,,,,,,,,,,,,,,,,,,,,,,,,,,,,,,,,0,2,2,13,,,,,,,,,,,,,,,,,,,,,,,,,,,,,,786.2257469999895,1.0149029000021983,787.2368796999945,787.3202470999968,788.1199236999964,788.2199047999893,788.2199047999893,788.2199047999893,down,1,0.8622809000080451,,,,,,,,,,,,,,,,,,,,,,,,,,,,,,,,,,,,,006,001,2023-11-16_14h55.58.720,ETproject_Chi_2023.1.1,2023.1.1,59.850851677642055,
18,Month,二月,六月,,Vert,early,up,image/Chi_early.png,"[0, 0.4]","[0, -0.4]",4,congruent,,,,,,,,,,,,,,,,,,,,,,,,,,,,,,,,,,,,,,0,3,3,25,,,,,,,,,,,,,,,,,,,,,,,,,,,,,,789.1123256999999,1.0119836000085343,790.1193174999935,790.2025537000009,791.0024518999999,791.1023290999874,791.1023290999874,791.1023290999874,up,1,0.7724810000072466,,,,,,,,,,,,,,,,,,,,,,,,,,,,,,,,,,,,,006,001,2023-11-16_14h55.58.720,ETproject_Chi_2023.1.1,2023.1.1,59.850851677642055,
111,Week,星期一,星期四,,Vert,early,up,image/Chi_early.png,"[0, 0.4]","[0, -0.4]",3,congruent,,,,,,,,,,,,,,,,,,,,,,,,,,,,,,,,,,,,,,0,4,4,16,,,,,,,,,,,,,,,,,,,,,,,,,,,,,,791.9094413999992,1.0126448999944841,792.9184977999976,793.0016839000018,793.8015683999984,793.9013749000005,793.9013749000005,793.9013749000005,up,1,0.6207965999929002,,,,,,,,,,,,,,,,,,,,,,,,,,,,,,,,,,,,,006,001,2023-11-16_14h55.58.720,ETproject_Chi_2023.1.1,2023.1.1,59.850851677642055,
133,Week,星期三 ,星期二,,Hori,late,left,image/Chi_late.png,"[-0.4, 0]","[0.4, 0]",1,incongruent,,,,,,,,,,,,,,,,,,,,,,,,,,,,,,,,,,,,,,0,5,5,30,,,,,,,,,,,,,,,,,,,,,,,,,,,,,,794.566437299989,1.0116846000018995,795.5680618999904,795.651052199988,796.4507759999979,796.5506513,796.5506513,796.5506513,left,1,0.6755236000026343,,,,,,,,,,,,,,,,,,,,,,,,,,,,,,,,,,,,,006,001,2023-11-16_14h55.58.720,ETproject_Chi_2023.1.1,2023.1.1,59.850851677642055,
39,Month,六月,三月,,Hori,early,right,image/Chi_early.png,"[-0.4, 0]","[0.4, 0]",3,incongruent,,,,,,,,,,,,,,,,,,,,,,,,,,,,,,,,,,,,,,0,6,6,26,,,,,,,,,,,,,,,,,,,,,,,,,,,,,,797.2592414999963,1.0147166000097059,798.2667691999959,798.3501954999956,799.1499183999986,799.2499034999928,799.2499034999928,799.2499034999928,right,1,0.6255518999969354,,,,,,,,,,,,,,,,,,,,,,,,,,,,,,,,,,,,,006,001,2023-11-16_14h55.58.720,ETproject_Chi_2023.1.1,2023.1.1,59.850851677642055,
1,Month,一月,五月,,Hori,early,left,image/Chi_early.png,"[-0.4, 0]","[0.4, 0]",4,congruent,,,,,,,,,,,,,,,,,,,,,,,,,,,,,,,,,,,,,,0,7,7,34,,,,,,,,,,,,,,,,,,,,,,,,,,,,,,799.9092470999894,1.0104796000086935,800.9160236999887,800.9992612999922,801.7991438999888,801.8989532999985,801.8989532999985,801.8989532999985,left,1,0.4879287000076147,,,,,,,,,,,,,,,,,,,,,,,,,,,,,,,,,,,,,006,001,2023-11-16_14h55.58.720,ETproject_Chi_2023.1.1,2023.1.1,59.850851677642055,
28,Month,一月,四月,,Vert,late,down,image/Chi_late.png,"[0, 0.4]","[0, -0.4]",3,congruent,,,,,,,,,,,,,,,,,,,,,,,,,,,,,,,,,,,,,,0,8,8,9,,,,,,,,,,,,,,,,,,,,,,,,,,,,,,802.4226837999886,0.9990975999971852,803.4317844999896,803.5152612999955,804.314873700001,804.4147382999945,804.4147382999945,804.4147382999945,down,1,0.6437018000142416,,,,,,,,,,,,,,,,,,,,,,,,,,,,,,,,,,,,,006,001,2023-11-16_14h55.58.720,ETproject_Chi_2023.1.1,2023.1.1,59.850851677642055,
121,Week,星期四,星期日,,Vert,late,down,image/Chi_late.png,"[0, 0.4]","[0, -0.4]",3,congruent,,,,,,,,,,,,,,,,,,,,,,,,,,,,,,,,,,,,,,0,9,9,22,,,,,,,,,,,,,,,,,,,,,,,,,,,,,,805.0878823999956,1.0132223999971757,806.0975775999977,806.1809666999907,806.9807255999913,807.0806180999934,807.0806180999934,807.0806180999934,down,1,1.1150183999998262,,,,,,,,,,,,,,,,,,,,,,,,,,,,,,,,,,,,,006,001,2023-11-16_14h55.58.720,ETproject_Chi_2023.1.1,2023.1.1,59.850851677642055,
125,Week,星期四,星期一,,Hori,early,right,image/Chi_early.png,"[-0.4, 0]","[0.4, 0]",3,incongruent,,,,,,,,,,,,,,,,,,,,,,,,,,,,,,,,,,,,,,0,10,10,31,,,,,,,,,,,,,,,,,,,,,,,,,,,,,,808.2236637999886,1.0114344000030542,809.2298960999906,809.3133038999949,810.1128895000002,810.2128836999909,810.2128836999909,810.2128836999909,right,1,0.9661947999993572,,,,,,,,,,,,,,,,,,,,,,,,,,,,,,,,,,,,,006,001,2023-11-16_14h55.58.720,ETproject_Chi_2023.1.1,2023.1.1,59.850851677642055,
149,Week,星期六,星期四,,Vert,late,up,image/Chi_late.png,"[0, 0.4]","[0, -0.4]",2,incongruent,,,,,,,,,,,,,,,,,,,,,,,,,,,,,,,,,,,,,,0,11,11,10,,,,,,,,,,,,,,,,,,,,,,,,,,,,,,811.2053392999951,1.0128511999937473,812.2121271999931,812.295590099995,813.0954135999928,813.1952559999918,813.1952559999918,813.1952559999918,up,1,0.8473008000000846,,,,,,,,,,,,,,,,,,,,,,,,,,,,,,,,,,,,,006,001,2023-11-16_14h55.58.720,ETproject_Chi_2023.1.1,2023.1.1,59.850851677642055,
16,Month,五月,六月,,Hori,late,right,image/Chi_late.png,"[-0.4, 0]","[0.4, 0]",1,congruent,,,,,,,,,,,,,,,,,,,,,,,,,,,,,,,,,,,,,,0,12,12,32,,,,,,,,,,,,,,,,,,,,,,,,,,,,,,815.0679381999944,1.0141486000065925,816.0775584999938,816.1609434999991,816.9607263999933,817.0608527000004,817.0608527000004,817.0608527000004,right,1,0.7012987000052817,,,,,,,,,,,,,,,,,,,,,,,,,,,,,,,,,,,,,006,001,2023-11-16_14h55.58.720,ETproject_Chi_2023.1.1,2023.1.1,59.850851677642055,
60,Month,六月,五月,,Hori,late,left,image/Chi_late.png,"[-0.4, 0]","[0.4, 0]",1,incongruent,,,,,,,,,,,,,,,,,,,,,,,,,,,,,,,,,,,,,,0,13,13,43,,,,,,,,,,,,,,,,,,,,,,,,,,,,,,817.8069025000004,1.0147899000003235,818.8100093999965,818.8933950999926,819.6933223999949,819.7931570999936,819.7931570999936,819.7931570999936,left,1,0.6660588999948232,,,,,,,,,,,,,,,,,,,,,,,,,,,,,,,,,,,,,006,001,2023-11-16_14h55.58.720,ETproject_Chi_2023.1.1,2023.1.1,59.850851677642055,
67,Month,七月,四月,,Vert,late,up,image/Chi_late.png,"[0, 0.4]","[0, -0.4]",3,incongruent,,,,,,,,,,,,,,,,,,,,,,,,,,,,,,,,,,,,,,0,14,14,6,,,,,,,,,,,,,,,,,,,,,,,,,,,,,,820.4870497999946,1.0131725999963237,821.4924429999955,821.5758635999955,822.3755534999946,822.4757486999879,822.4757486999879,822.4757486999879,up,1,0.7679442000080599,,,,,,,,,,,,,,,,,,,,,,,,,,,,,,,,,,,,,006,001,2023-11-16_14h55.58.720,ETproject_Chi_2023.1.1,2023.1.1,59.850851677642055,
112,Week,星期二,星期四,,Vert,early,up,image/Chi_early.png,"[0, 0.4]","[0, -0.4]",2,congruent,,,,,,,,,,,,,,,,,,,,,,,,,,,,,,,,,,,,,,0,15,15,41,,,,,,,,,,,,,,,,,,,,,,,,,,,,,,823.2895734999911,1.0106934000068577,824.2916291000001,824.3749498999969,825.1745892999897,825.2747537999967,825.2747537999967,825.2747537999967,up,1,0.6725128000107361,,,,,,,,,,,,,,,,,,,,,,,,,,,,,,,,,,,,,006,001,2023-11-16_14h55.58.720,ETproject_Chi_2023.1.1,2023.1.1,59.850851677642055,
141,Week,星期四,星期三 ,,Vert,early,down,image/Chi_early.png,"[0, 0.4]","[0, -0.4]",1,incongruent,,,,,,,,,,,,,,,,,,,,,,,,,,,,,,,,,,,,,,0,16,16,7,,,,,,,,,,,,,,,,,,,,,,,,,,,,,,825.9791308999993,0.9990894000075059,826.9907062999991,827.0741061000008,827.8736092999898,827.9736705999967,827.9736705999967,827.9736705999967,down,1,0.7422681999887573,,,,,,,,,,,,,,,,,,,,,,,,,,,,,,,,,,,,,006,001,2023-11-16_14h55.58.720,ETproject_Chi_2023.1.1,2023.1.1,59.850851677642055,
132,Week,星期三 ,星期一,,Hori,late,left,image/Chi_late.png,"[-0.4, 0]","[0.4, 0]",2,incongruent,,,,,,,,,,,,,,,,,,,,,,,,,,,,,,,,,,,,,,0,17,17,2,,,,,,,,,,,,,,,,,,,,,,,,,,,,,,828.7508132999938,1.012364800000796,829.7564252999873,829.8399140999973,830.6395366999932,830.7392642999912,830.7392642999912,830.7392642999912,left,1,0.6958239999949001,,,,,,,,,,,,,,,,,,,,,,,,,,,,,,,,,,,,,006,001,2023-11-16_14h55.58.720,ETproject_Chi_2023.1.1,2023.1.1,59.850851677642055,
27,Month,七月,九月 ,,Vert,early,up,image/Chi_early.png,"[0, 0.4]","[0, -0.4]",2,congruent,,,,,,,,,,,,,,,,,,,,,,,,,,,,,,,,,,,,,,0,18,18,17,,,,,,,,,,,,,,,,,,,,,,,,,,,,,,831.4690919999994,1.0111758999992162,832.4722164999985,832.5556418999913,833.3552828999964,833.4552793999901,833.4552793999901,833.4552793999901,up,1,1.2048434000025736,,,,,,,,,,,,,,,,,,,,,,,,,,,,,,,,,,,,,006,001,2023-11-16_14h55.58.720,ETproject_Chi_2023.1.1,2023.1.1,59.850851677642055,
44,Month,八月,四月,,Hori,late,left,image/Chi_late.png,"[-0.4, 0]","[0.4, 0]",4,incongruent,,,,,,,,,,,,,,,,,,,,,,,,,,,,,,,,,,,,,,0,19,19,40,,,,,,,,,,,,,,,,,,,,,,,,,,,,,,835.699421199999,1.0149335000023711,836.7041450999968,836.7874233999901,837.5872974999947,837.6871166999917,837.6871166999917,837.6871166999917,left,1,0.6031875000044238,,,,,,,,,,,,,,,,,,,,,,,,,,,,,,,,,,,,,006,001,2023-11-16_14h55.58.720,ETproject_Chi_2023.1.1,2023.1.1,59.850851677642055,
27,Month,五月,六月,,Vert,early,up,image/Chi_early.png,"[0, 0.4]","[0, -0.4]",1,congruent,,,,,,,,,,,,,,,,,,,,,,,,,,,,,,,,,,,,,,0,20,20,48,,,,,,,,,,,,,,,,,,,,,,,,,,,,,,838.33014369999,1.0129028000083053,839.3365867999964,839.4199722999911,840.219551599992,840.3195778999943,840.3195778999943,840.3195778999943,up,1,0.6829527999943821,,,,,,,,,,,,,,,,,,,,,,,,,,,,,,,,,,,,,006,001,2023-11-16_14h55.58.720,ETproject_Chi_2023.1.1,2023.1.1,59.850851677642055,
22,Month,二月,四月,,Vert,early,up,image/Chi_early.png,"[0, 0.4]","[0, -0.4]",2,congruent,,,,,,,,,,,,,,,,,,,,,,,,,,,,,,,,,,,,,,0,21,21,39,,,,,,,,,,,,,,,,,,,,,,,,,,,,,,841.0294181999925,1.0111707000032766,842.0357114999933,842.1190363999922,842.9186071000004,843.0188935999904,843.0188935999904,843.0188935999904,up,1,0.5680032999953255,,,,,,,,,,,,,,,,,,,,,,,,,,,,,,,,,,,,,006,001,2023-11-16_14h55.58.720,ETproject_Chi_2023.1.1,2023.1.1,59.850851677642055,
147,Week,星期五,星期二,,Vert,late,up,image/Chi_late.png,"[0, 0.4]","[0, -0.4]",3,incongruent,,,,,,,,,,,,,,,,,,,,,,,,,,,,,,,,,,,,,,0,22,22,21,,,,,,,,,,,,,,,,,,,,,,,,,,,,,,843.6256525999925,0.9991497000009986,844.6348759999964,844.7180933999916,845.5178954000003,845.6178533999919,845.6178533999919,845.6178533999919,up,1,1.0259093999920879,,,,,,,,,,,,,,,,,,,,,,,,,,,,,,,,,,,,,006,001,2023-11-16_14h55.58.720,ETproject_Chi_2023.1.1,2023.1.1,59.850851677642055,
6,Month,六月,七月,,Hori,early,left,image/Chi_early.png,"[-0.4, 0]","[0.4, 0]",1,congruent,,,,,,,,,,,,,,,,,,,,,,,,,,,,,,,,,,,,,,0,23,23,33,,,,,,,,,,,,,,,,,,,,,,,,,,,,,,846.6757135999942,0.9994460999878356,847.6838686999981,847.7671836999943,848.5669196999952,848.6667804999888,848.6667804999888,848.6667804999888,left,1,0.7361581000004662,,,,,,,,,,,,,,,,,,,,,,,,,,,,,,,,,,,,,006,001,2023-11-16_14h55.58.720,ETproject_Chi_2023.1.1,2023.1.1,59.850851677642055,
15,Month,六月,九月 ,,Hori,late,right,image/Chi_late.png,"[-0.4, 0]","[0.4, 0]",3,congruent,,,,,,,,,,,,,,,,,,,,,,,,,,,,,,,,,,,,,,0,24,24,42,,,,,,,,,,,,,,,,,,,,,,,,,,,,,,849.441633800001,1.0134233999997377,850.4495446999936,850.5331504999922,851.3326959999977,851.4328428000008,851.4328428000008,851.4328428000008,right,1,0.8020544000028167,,,,,,,,,,,,,,,,,,,,,,,,,,,,,,,,,,,,,006,001,2023-11-16_14h55.58.720,ETproject_Chi_2023.1.1,2023.1.1,59.850851677642055,
48,Month,五月,四月,,Hori,early,right,image/Chi_early.png,"[-0.4, 0]","[0.4, 0]",1,incongruent,,,,,,,,,,,,,,,,,,,,,,,,,,,,,,,,,,,,,,0,25,25,37,,,,,,,,,,,,,,,,,,,,,,,,,,,,,,852.2792153999908,1.012199300006614,853.2820735999994,853.3653089,854.1652878999885,854.2652374999889,854.2652374999889,854.2652374999889,right,1,0.8980672999896342,,,,,,,,,,,,,,,,,,,,,,,,,,,,,,,,,,,,,006,001,2023-11-16_14h55.58.720,ETproject_Chi_2023.1.1,2023.1.1,59.850851677642055,
74,Month,六月,四月,,Vert,late,up,image/Chi_late.png,"[0, 0.4]","[0, -0.4]",2,incongruent,,,,,,,,,,,,,,,,,,,,,,,,,,,,,,,,,,,,,,0,26,26,27,,,,,,,,,,,,,,,,,,,,,,,,,,,,,,855.1926879999955,1.0104270000010729,856.1974852999992,856.2809531999956,857.0807230999926,857.1808388999925,857.1808388999925,857.1808388999925,up,1,0.7023170000029495,,,,,,,,,,,,,,,,,,,,,,,,,,,,,,,,,,,,,006,001,2023-11-16_14h55.58.720,ETproject_Chi_2023.1.1,2023.1.1,59.850851677642055,
74,Month,九月 ,八月,,Vert,early,down,image/Chi_early.png,"[0, 0.4]","[0, -0.4]",1,incongruent,,,,,,,,,,,,,,,,,,,,,,,,,,,,,,,,,,,,,,0,27,27,38,,,,,,,,,,,,,,,,,,,,,,,,,,,,,,857.9265403999889,1.011054399990826,858.9301637999888,859.0137893999927,859.8134355999937,859.9132026000007,859.9132026000007,859.9132026000007,down,1,1.1610120999976061,,,,,,,,,,,,,,,,,,,,,,,,,,,,,,,,,,,,,006,001,2023-11-16_14h55.58.720,ETproject_Chi_2023.1.1,2023.1.1,59.850851677642055,
142,Week,星期六,星期四,,Vert,early,down,image/Chi_early.png,"[0, 0.4]","[0, -0.4]",2,incongruent,,,,,,,,,,,,,,,,,,,,,,,,,,,,,,,,,,,,,,0,28,28,15,,,,,,,,,,,,,,,,,,,,,,,,,,,,,,861.1074026999995,1.0113699000066845,862.112535799999,862.1959433000011,862.9957284999982,863.0955642999907,863.0955642999907,863.0955642999907,down,1,0.8194648000062443,,,,,,,,,,,,,,,,,,,,,,,,,,,,,,,,,,,,,006,001,2023-11-16_14h55.58.720,ETproject_Chi_2023.1.1,2023.1.1,59.850851677642055,
138,Week,星期一,星期日,,Hori,late,left,image/Chi_late.png,"[-0.4, 0]","[0.4, 0]",1,incongruent,,,,,,,,,,,,,,,,,,,,,,,,,,,,,,,,,,,,,,0,29,29,18,,,,,,,,,,,,,,,,,,,,,,,,,,,,,,863.9522952999978,0.9990227999951458,864.9614261999959,865.0448606999998,865.8445385999948,865.9446584999969,865.9446584999969,865.9446584999969,right,0,0.6267506000003777,,,,,,,,,,,,,,,,,,,,,,,,,,,,,,,,,,,,,006,001,2023-11-16_14h55.58.720,ETproject_Chi_2023.1.1,2023.1.1,59.850851677642055,
41,Month,八月,九月 ,,Vert,late,down,image/Chi_late.png,"[0, 0.4]","[0, -0.4]",1,congruent,,,,,,,,,,,,,,,,,,,,,,,,,,,,,,,,,,,,,,0,30,30,23,,,,,,,,,,,,,,,,,,,,,,,,,,,,,,867.5998099999997,1.01446429999487,868.6104538999934,868.6936082999891,869.4935286999971,869.5934075999976,869.5934075999976,869.5934075999976,down,1,1.1774719999957597,,,,,,,,,,,,,,,,,,,,,,,,,,,,,,,,,,,,,006,001,2023-11-16_14h55.58.720,ETproject_Chi_2023.1.1,2023.1.1,59.850851677642055,
114,Week,星期四,星期六,,Vert,early,up,image/Chi_early.png,"[0, 0.4]","[0, -0.4]",2,congruent,,,,,,,,,,,,,,,,,,,,,,,,,,,,,,,,,,,,,,0,31,31,1,,,,,,,,,,,,,,,,,,,,,,,,,,,,,,870.8055253999919,1.012757700009388,871.8092168000003,871.8925287999882,872.6922744999902,872.792437199998,872.792437199998,872.792437199998,down,0,2.473917299997993,,,,,,,,,,,,,,,,,,,,,,,,,,,,,,,,,,,,,006,001,2023-11-16_14h55.58.720,ETproject_Chi_2023.1.1,2023.1.1,59.850851677642055,
98,Week,星期二,星期四,,Hori,early,left,image/Chi_early.png,"[-0.4, 0]","[0.4, 0]",2,congruent,,,,,,,,,,,,,,,,,,,,,,,,,,,,,,,,,,,,,,0,32,32,47,,,,,,,,,,,,,,,,,,,,,,,,,,,,,,875.3011414999928,1.0116878999979235,876.3077342999895,876.3910819000012,877.1908983999892,877.2908143999957,877.2908143999957,877.2908143999957,left,1,0.7194471000111662,,,,,,,,,,,,,,,,,,,,,,,,,,,,,,,,,,,,,006,001,2023-11-16_14h55.58.720,ETproject_Chi_2023.1.1,2023.1.1,59.850851677642055,
17,Month,一月,五月,,Vert,early,up,image/Chi_early.png,"[0, 0.4]","[0, -0.4]",4,congruent,,,,,,,,,,,,,,,,,,,,,,,,,,,,,,,,,,,,,,0,33,33,35,,,,,,,,,,,,,,,,,,,,,,,,,,,,,,878.0526416999928,1.0106412000022829,879.0568088,879.1402070999902,879.9399789000017,880.0398888999916,880.0398888999916,880.0398888999916,up,1,0.9233513999934075,,,,,,,,,,,,,,,,,,,,,,,,,,,,,,,,,,,,,006,001,2023-11-16_14h55.58.720,ETproject_Chi_2023.1.1,2023.1.1,59.850851677642055,
135,Week,星期日,星期四,,Hori,late,left,image/Chi_late.png,"[-0.4, 0]","[0.4, 0]",3,incongruent,,,,,,,,,,,,,,,,,,,,,,,,,,,,,,,,,,,,,,0,34,34,12,,,,,,,,,,,,,,,,,,,,,,,,,,,,,,881.0108876000013,1.0143344000098296,882.022679799993,882.0892220999958,882.8888597999903,882.9890420000011,882.9890420000011,882.9890420000011,left,1,0.9583953000110341,,,,,,,,,,,,,,,,,,,,,,,,,,,,,,,,,,,,,006,001,2023-11-16_14h55.58.720,ETproject_Chi_2023.1.1,2023.1.1,59.850851677642055,
56,Month,五月,二月,,Vert,early,down,image/Chi_early.png,"[0, 0.4]","[0, -0.4]",3,incongruent,,,,,,,,,,,,,,,,,,,,,,,,,,,,,,,,,,,,,,0,35,35,3,,,,,,,,,,,,,,,,,,,,,,,,,,,,,,883.987521499992,1.0107561000040732,884.9882911999885,885.0715933999891,885.8712350999995,885.9713569999876,885.9713569999876,885.9713569999876,down,1,1.3196529999986524,,,,,,,,,,,,,,,,,,,,,,,,,,,,,,,,,,,,,006,001,2023-11-16_14h55.58.720,ETproject_Chi_2023.1.1,2023.1.1,59.850851677642055,
