No,Category,earlier_stim,later_stim,conguency,orientation,instruction,corr_resp,Instruction_stim,early_position,late_position,distance,congruency,Image,Qustion,Response,CorrAns,Path,prac_block.thisRepN,prac_block.thisTrialN,prac_block.thisN,prac_block.thisIndex,trials.thisRepN,trials.thisTrialN,trials.thisN,trials.thisIndex,block1.thisRepN,block1.thisTrialN,block1.thisN,block1.thisIndex,break1.thisRepN,break1.thisTrialN,break1.thisN,break1.thisIndex,block2.thisRepN,block2.thisTrialN,block2.thisN,block2.thisIndex,break2.thisRepN,break2.thisTrialN,break2.thisN,break2.thisIndex,block3.thisRepN,block3.thisTrialN,block3.thisN,block3.thisIndex,break3.thisRepN,break3.thisTrialN,break3.thisN,break3.thisIndex,block4.thisRepN,block4.thisTrialN,block4.thisN,block4.thisIndex,intro_1.started,intro_1.stopped,intro_2.started,intro2_resp.started,intro2_resp.keys,intro2_resp.rt,Intro_3.started,intro3_resp.started,intro3_resp.keys,intro3_resp.rt,pracintro.started,pracintro_resp.started,pracintro_resp.keys,pracintro_resp.rt,image.started,early.started,RESP.started,late.started,pracfeedback.started,pracfeedback.stopped,text_4.started,text_4.stopped,text_5.started,baselinerecord.started,intro_5.started,intro5_resp.started,intro5_resp.keys,intro5_resp.rt,main_image_2.started,etRecord.started,main_image_2.stopped,fix.started,fix.stopped,main_early.started,ct_resp.started,main_late.started,ct_resp.keys,ct_resp.corr,ct_resp.rt,intro.started,intro2_resp_2.started,intro2_resp_2.keys,intro2_resp_2.rt,fengjing.started,text.started,fengjing.stopped,text.stopped,key_resp.started,text_2.started,text_3.started,key_resp.keys,key_resp.corr,key_resp.rt,intro_6.started,intro5_resp_2.started,intro5_resp_2.keys,intro5_resp_2.rt,intro_3.started,intro2_resp_3.started,intro2_resp_3.keys,intro2_resp_3.rt,intro_7.started,intro2_resp_5.started,intro2_resp_5.keys,intro2_resp_5.rt,intro_4.started,intro2_resp_4.started,intro2_resp_4.keys,intro2_resp_4.rt,intro_8.started,intro2_resp_6.started,intro2_resp_6.keys,intro2_resp_6.rt,theend.started,theend.stopped,participant,session,date,expName,psychopyVersion,frameRate,
,,,,,,,,,,,,,,,,,,,,,,,,,,,,,,,,,,,,,,,,,,,,,,,,,,,,,,96.02076790004503,98.02850460004993,98.02850460004993,98.02850460004993,space,4.835008300025947,,,,,,,,,,,,,,,,,,,,,,,,,,,,,,,,,,,,,,,,,,,,,,,,,,,,,,,,,,,,,,,,,,,,,,007,001,2023-11-19_13h15.05.447,ETproject_Chi_2023.1.1,2023.1.1,59.98098601532278,
,,,,,,,,,,,,,,,,,,,,,,,,,,,,,,,,,,,,,,,,,,,,,,,,,,,,,,,,,,,,102.89374020003015,102.89374020003015,space,50.906160399958026,,,,,,,,,,,,,,,,,,,,,,,,,,,,,,,,,,,,,,,,,,,,,,,,,,,,,,,,,,,,,,,,,,007,001,2023-11-19_13h15.05.447,ETproject_Chi_2023.1.1,2023.1.1,59.98098601532278,
6,practice,星期四,星期三 ,incongruent,Hori,late,left,image/Chi_late.png,"[-0.4, 0]","[0.4, 0]",,,,,,,,0,0,0,0,0,0,0,5,,,,,,,,,,,,,,,,,,,,,,,,,,,,,,,,,,,,,,,153.87312510004267,153.87312510004267,space,3.9101019999943674,157.86711770005058,158.82486580003751,158.82486580003751,158.82486580003751,160.49704600003315,,,,,,,,,,,,,,,,,,,,,,,,,,,,,,,,,,,,,,,,,,,,,,,,,,,,,,,,,007,001,2023-11-19_13h15.05.447,ETproject_Chi_2023.1.1,2023.1.1,59.98098601532278,
3,practice,星期一,星期二,congruent,Vert,early,up,image/Chi_early.png,"[0, 0.4]","[0, -0.4]",,,,,,,,0,0,0,0,0,1,1,2,,,,,,,,,,,,,,,,,,,,,,,,,,,,,,,,,,,,,,,,,,,161.51709800004028,162.50709270004882,162.50709270004882,162.50709270004882,163.80676360003417,164.81732480000937,,,,,,,,,,,,,,,,,,,,,,,,,,,,,,,,,,,,,,,,,,,,,,,,,,,,,,,,007,001,2023-11-19_13h15.05.447,ETproject_Chi_2023.1.1,2023.1.1,59.98098601532278,
8,practice,星期六,星期五,incongruent,Vert,late,up,image/Chi_late.png,"[0, 0.4]","[0, -0.4]",,,,,,,,0,0,0,0,0,2,2,7,,,,,,,,,,,,,,,,,,,,,,,,,,,,,,,,,,,,,,,,,,,164.81732480000937,165.82258380000712,165.82258380000712,165.82258380000712,167.17232760001207,168.17379700002493,,,,,,,,,,,,,,,,,,,,,,,,,,,,,,,,,,,,,,,,,,,,,,,,,,,,,,,,007,001,2023-11-19_13h15.05.447,ETproject_Chi_2023.1.1,2023.1.1,59.98098601532278,
2,practice,星期五,星期六,congruent,Hori,late,right,image/Chi_late.png,"[-0.4, 0]","[0.4, 0]",,,,,,,,0,0,0,0,0,3,3,1,,,,,,,,,,,,,,,,,,,,,,,,,,,,,,,,,,,,,,,,,,,168.17379700002493,169.18807760003256,169.18807760003256,169.18807760003256,170.0880399000016,171.0944193000323,,,,,,,,,,,,,,,,,,,,,,,,,,,,,,,,,,,,,,,,,,,,,,,,,,,,,,,,007,001,2023-11-19_13h15.05.447,ETproject_Chi_2023.1.1,2023.1.1,59.98098601532278,
1,practice,星期三 ,星期四,congruent,Hori,early,left,image/Chi_early.png,"[-0.4, 0]","[0.4, 0]",,,,,,,,0,0,0,0,0,4,4,0,,,,,,,,,,,,,,,,,,,,,,,,,,,,,,,,,,,,,,,,,,,171.0944193000323,172.10383820004063,172.10383820004063,172.10383820004063,173.13709510001354,174.14120270003332,,,,,,,,,,,,,,,,,,,,,,,,,,,,,,,,,,,,,,,,,,,,,,,,,,,,,,,,007,001,2023-11-19_13h15.05.447,ETproject_Chi_2023.1.1,2023.1.1,59.98098601532278,
4,practice,星期日,星期一,congruent,Vert,late,down,image/Chi_late.png,"[0, 0.4]","[0, -0.4]",,,,,,,,0,0,0,0,0,5,5,3,,,,,,,,,,,,,,,,,,,,,,,,,,,,,,,,,,,,,,,,,,,174.14120270003332,175.15271750005195,175.15271750005195,175.15271750005195,176.2533332000021,177.25985650002258,,,,,,,,,,,,,,,,,,,,,,,,,,,,,,,,,,,,,,,,,,,,,,,,,,,,,,,,007,001,2023-11-19_13h15.05.447,ETproject_Chi_2023.1.1,2023.1.1,59.98098601532278,
5,practice,星期二,星期一,incongruent,Hori,early,right,image/Chi_early.png,"[-0.4, 0]","[0.4, 0]",,,,,,,,0,0,0,0,0,6,6,4,,,,,,,,,,,,,,,,,,,,,,,,,,,,,,,,,,,,,,,,,,,177.25985650002258,178.2685621000128,178.2685621000128,178.2685621000128,179.2017540000379,180.20307109999703,,,,,,,,,,,,,,,,,,,,,,,,,,,,,,,,,,,,,,,,,,,,,,,,,,,,,,,,007,001,2023-11-19_13h15.05.447,ETproject_Chi_2023.1.1,2023.1.1,59.98098601532278,
7,practice,星期三 ,星期二,incongruent,Vert,early,down,image/Chi_early.png,"[0, 0.4]","[0, -0.4]",,,,,,,,0,0,0,0,0,7,7,6,,,,,,,,,,,,,,,,,,,,,,,,,,,,,,,,,,,,,,,,,,,180.20307109999703,181.21751230000518,181.21751230000518,181.21751230000518,182.36748600000283,183.36692080000648,,,,,,,,,,,,,,,,,,,,,,,,,,,,,,,,,,,,,,,,,,,,,,,,,,,,,,,,007,001,2023-11-19_13h15.05.447,ETproject_Chi_2023.1.1,2023.1.1,59.98098601532278,
,,,,,,,,,,,,,,,,,,0,0,0,0,,,,,,,,,,,,,,,,,,,,,,,,,,,,,,,,,,,,,,,,,,,,,,,,,,,,,,,,,,,,,,,,,,,,,,,,,,,,,,,,,,,,,,,,,,,,,,,,,,,,,,,,,,,,007,001,2023-11-19_13h15.05.447,ETproject_Chi_2023.1.1,2023.1.1,59.98098601532278,
,,,,,,,,,,,,,,,,,,,,,,,,,,,,,,,,,,,,,,,,,,,,,,,,,,,,,,,,,,,,,,,,,,,,,,,,,,183.36692080000648,186.36591930000577,186.36591930000577,3.0149623000179417,190.3814356000512,190.3814356000512,space,2.7308126999996603,,,,,,,,,,,,,,,,,,,,,,,,,,,,,,,,,,,,,,,,,,,,,,,,007,001,2023-11-19_13h15.05.447,ETproject_Chi_2023.1.1,2023.1.1,59.98098601532278,
49,Month,七月,四月,,Hori,late,left,image/Chi_late.png,"[-0.4, 0]","[0.4, 0]",3,incongruent,,,,,,,,,,,,,,0,0,0,38,,,,,,,,,,,,,,,,,,,,,,,,,,,,,,,,,,,,,,,,,,,,,,,,,,,,,193.15190950001124,0.9992289000074379,194.16308680002112,194.22985070000868,195.02972000004956,195.12960100005148,195.12960100005148,195.12960100005148,left,1,1.494561200030148,,,,,,,,,,,,,,,,,,,,,,,,,,,,,,,,,,,,,007,001,2023-11-19_13h15.05.447,ETproject_Chi_2023.1.1,2023.1.1,59.98098601532278,
106,Week,星期三 ,星期六,,Hori,late,right,image/Chi_late.png,"[-0.4, 0]","[0.4, 0]",3,congruent,,,,,,,,,,,,,,0,1,1,3,,,,,,,,,,,,,,,,,,,,,,,,,,,,,,,,,,,,,,,,,,,,,,,,,,,,,196.65387660003034,1.0151191999902949,197.66209500003606,197.7455947000417,198.54520040005445,198.64519690000452,198.64519690000452,198.64519690000452,right,1,1.0422127999481745,,,,,,,,,,,,,,,,,,,,,,,,,,,,,,,,,,,,,007,001,2023-11-19_13h15.05.447,ETproject_Chi_2023.1.1,2023.1.1,59.98098601532278,
127,Week,星期五,星期三 ,,Hori,early,right,image/Chi_early.png,"[-0.4, 0]","[0.4, 0]",2,incongruent,,,,,,,,,,,,,,0,2,2,13,,,,,,,,,,,,,,,,,,,,,,,,,,,,,,,,,,,,,,,,,,,,,,,,,,,,,199.72505590005312,1.0156185000087135,200.72784750000574,200.81111360003706,201.6107980000088,201.7108608999988,201.7108608999988,201.7108608999988,right,1,0.904792900022585,,,,,,,,,,,,,,,,,,,,,,,,,,,,,,,,,,,,,007,001,2023-11-19_13h15.05.447,ETproject_Chi_2023.1.1,2023.1.1,59.98098601532278,
23,Month,七月,十一月 ,,Vert,early,up,image/Chi_early.png,"[0, 0.4]","[0, -0.4]",4,congruent,,,,,,,,,,,,,,0,3,3,48,,,,,,,,,,,,,,,,,,,,,,,,,,,,,,,,,,,,,,,,,,,,,,,,,,,,,203.65015670005232,0.9991512999986298,204.65979880001396,204.74324850004632,205.5428166000056,205.642839200038,205.642839200038,205.642839200038,up,1,1.6931583000114188,,,,,,,,,,,,,,,,,,,,,,,,,,,,,,,,,,,,,007,001,2023-11-19_13h15.05.447,ETproject_Chi_2023.1.1,2023.1.1,59.98098601532278,
63,Month,十二月,九月 ,,Vert,early,down,image/Chi_early.png,"[0, 0.4]","[0, -0.4]",3,incongruent,,,,,,,,,,,,,,0,4,4,22,,,,,,,,,,,,,,,,,,,,,,,,,,,,,,,,,,,,,,,,,,,,,,,,,,,,,207.3694022000418,1.0122164000058547,208.3751906999969,208.45860180002637,209.25824700004887,209.35829130001366,209.35829130001366,209.35829130001366,down,1,1.2967167000169866,,,,,,,,,,,,,,,,,,,,,,,,,,,,,,,,,,,,,007,001,2023-11-19_13h15.05.447,ETproject_Chi_2023.1.1,2023.1.1,59.98098601532278,
34,Month,七月,十月 ,,Vert,late,down,image/Chi_late.png,"[0, 0.4]","[0, -0.4]",3,congruent,,,,,,,,,,,,,,0,5,5,11,,,,,,,,,,,,,,,,,,,,,,,,,,,,,,,,,,,,,,,,,,,,,,,,,,,,,210.69410590000916,1.0105070000281557,211.70745100005297,211.77407210000092,212.57373060000828,212.6739002999966,212.6739002999966,212.6739002999966,down,1,1.1182414999930188,,,,,,,,,,,,,,,,,,,,,,,,,,,,,,,,,,,,,007,001,2023-11-19_13h15.05.447,ETproject_Chi_2023.1.1,2023.1.1,59.98098601532278,
29,Month,七月,八月,,Vert,early,up,image/Chi_early.png,"[0, 0.4]","[0, -0.4]",1,congruent,,,,,,,,,,,,,,0,6,6,2,,,,,,,,,,,,,,,,,,,,,,,,,,,,,,,,,,,,,,,,,,,,,,,,,,,,,213.8371419000323,1.0132672999752685,214.83973940002033,214.92304890003288,215.72311800002353,215.8230113000027,215.8230113000027,215.8230113000027,up,1,1.5688939000247046,,,,,,,,,,,,,,,,,,,,,,,,,,,,,,,,,,,,,007,001,2023-11-19_13h15.05.447,ETproject_Chi_2023.1.1,2023.1.1,59.98098601532278,
97,Week,星期一,星期四,,Hori,early,left,image/Chi_early.png,"[-0.4, 0]","[0.4, 0]",3,congruent,,,,,,,,,,,,,,0,7,7,20,,,,,,,,,,,,,,,,,,,,,,,,,,,,,,,,,,,,,,,,,,,,,,,,,,,,,217.42632970004342,0.9990894999937154,218.43853020004462,218.52203990001,219.32151710003382,219.42161180003313,219.42161180003313,219.42161180003313,left,1,1.089691800007131,,,,,,,,,,,,,,,,,,,,,,,,,,,,,,,,,,,,,007,001,2023-11-19_13h15.05.447,ETproject_Chi_2023.1.1,2023.1.1,59.98098601532278,
16,Month,六月,八月,,Hori,late,right,image/Chi_late.png,"[-0.4, 0]","[0.4, 0]",2,congruent,,,,,,,,,,,,,,0,8,8,30,,,,,,,,,,,,,,,,,,,,,,,,,,,,,,,,,,,,,,,,,,,,,,,,,,,,,220.550930300029,1.0116830000188202,221.55420430004597,221.63748760003364,222.43728830001783,222.53725160000613,222.53725160000613,222.53725160000613,right,1,1.0142950000008568,,,,,,,,,,,,,,,,,,,,,,,,,,,,,,,,,,,,,007,001,2023-11-19_13h15.05.447,ETproject_Chi_2023.1.1,2023.1.1,59.98098601532278,
59,Month,七月,三月,,Vert,late,up,image/Chi_late.png,"[0, 0.4]","[0, -0.4]",4,incongruent,,,,,,,,,,,,,,0,9,9,47,,,,,,,,,,,,,,,,,,,,,,,,,,,,,,,,,,,,,,,,,,,,,,,,,,,,,223.5777123000007,1.014934999984689,224.58646420005243,224.669844500022,225.46964170003776,225.5697707000072,225.5697707000072,225.5697707000072,up,1,1.1578792000073008,,,,,,,,,,,,,,,,,,,,,,,,,,,,,,,,,,,,,007,001,2023-11-19_13h15.05.447,ETproject_Chi_2023.1.1,2023.1.1,59.98098601532278,
13,Month,四月,七月,,Hori,late,right,image/Chi_late.png,"[-0.4, 0]","[0.4, 0]",3,congruent,,,,,,,,,,,,,,0,10,10,41,,,,,,,,,,,,,,,,,,,,,,,,,,,,,,,,,,,,,,,,,,,,,,,,,,,,,226.76404130004812,1.0109533999930136,227.76878060004674,227.85204510000767,228.65184900001623,228.75190660002409,228.75190660002409,228.75190660002409,right,1,0.8481131999869831,,,,,,,,,,,,,,,,,,,,,,,,,,,,,,,,,,,,,007,001,2023-11-19_13h15.05.447,ETproject_Chi_2023.1.1,2023.1.1,59.98098601532278,
126,Week,星期三 ,星期二,,Hori,early,right,image/Chi_early.png,"[-0.4, 0]","[0.4, 0]",1,incongruent,,,,,,,,,,,,,,0,11,11,25,,,,,,,,,,,,,,,,,,,,,,,,,,,,,,,,,,,,,,,,,,,,,,,,,,,,,229.62852860003477,1.0124006000114605,230.6345244999975,230.71796810004162,231.51753350003855,231.61757620004937,231.61757620004937,231.61757620004937,right,1,0.9173728000023402,,,,,,,,,,,,,,,,,,,,,,,,,,,,,,,,,,,,,007,001,2023-11-19_13h15.05.447,ETproject_Chi_2023.1.1,2023.1.1,59.98098601532278,
150,Week,星期日,星期五,,Vert,late,up,image/Chi_late.png,"[0, 0.4]","[0, -0.4]",2,incongruent,,,,,,,,,,,,,,0,12,12,46,,,,,,,,,,,,,,,,,,,,,,,,,,,,,,,,,,,,,,,,,,,,,,,,,,,,,232.57842010003515,1.0123082000063732,233.58359210001072,233.66701289999764,234.4666546000517,234.56693140004063,234.56693140004063,234.56693140004063,up,1,0.9926593999844044,,,,,,,,,,,,,,,,,,,,,,,,,,,,,,,,,,,,,007,001,2023-11-19_13h15.05.447,ETproject_Chi_2023.1.1,2023.1.1,59.98098601532278,
118,Week,星期一,星期四,,Vert,late,down,image/Chi_late.png,"[0, 0.4]","[0, -0.4]",3,congruent,,,,,,,,,,,,,,0,13,13,45,,,,,,,,,,,,,,,,,,,,,,,,,,,,,,,,,,,,,,,,,,,,,,,,,,,,,235.59035950002726,1.0135685999994166,236.5992438000394,236.68258510000305,237.48234240000602,237.5823076000088,237.5823076000088,237.5823076000088,down,1,1.105617000022903,,,,,,,,,,,,,,,,,,,,,,,,,,,,,,,,,,,,,007,001,2023-11-19_13h15.05.447,ETproject_Chi_2023.1.1,2023.1.1,59.98098601532278,
12,Week,星期日,星期四,,Vert,late,up,image/Chi_late.png,"[0, 0.4]","[0, -0.4]",3,incongruent,,,,,,,,,,,,,,0,14,14,9,,,,,,,,,,,,,,,,,,,,,,,,,,,,,,,,,,,,,,,,,,,,,,,,,,,,,238.7229072000482,1.0116211000131443,239.7317013000138,239.81497570005013,240.614661300031,240.7147734000464,240.7147734000464,240.7147734000464,up,1,0.9249449000344612,,,,,,,,,,,,,,,,,,,,,,,,,,,,,,,,,,,,,007,001,2023-11-19_13h15.05.447,ETproject_Chi_2023.1.1,2023.1.1,59.98098601532278,
75,Month,十月 ,九月 ,,Vert,early,down,image/Chi_early.png,"[0, 0.4]","[0, -0.4]",1,incongruent,,,,,,,,,,,,,,0,15,15,1,,,,,,,,,,,,,,,,,,,,,,,,,,,,,,,,,,,,,,,,,,,,,,,,,,,,,241.67878720001318,1.0119157999870367,242.68063690001145,242.76402800000506,243.56376380001893,243.66367630002787,243.66367630002787,243.66367630002787,down,1,1.0563074999954551,,,,,,,,,,,,,,,,,,,,,,,,,,,,,,,,,,,,,007,001,2023-11-19_13h15.05.447,ETproject_Chi_2023.1.1,2023.1.1,59.98098601532278,
120,Week,星期三 ,星期六,,Vert,late,down,image/Chi_late.png,"[0, 0.4]","[0, -0.4]",3,congruent,,,,,,,,,,,,,,0,16,16,34,,,,,,,,,,,,,,,,,,,,,,,,,,,,,,,,,,,,,,,,,,,,,,,,,,,,,244.75857310002903,1.0108973000315018,245.76290740002878,245.8463344000047,246.6458924000035,246.74594480002997,246.74594480002997,246.74594480002997,down,1,0.9979914999566972,,,,,,,,,,,,,,,,,,,,,,,,,,,,,,,,,,,,,007,001,2023-11-19_13h15.05.447,ETproject_Chi_2023.1.1,2023.1.1,59.98098601532278,
107,Week,星期四,星期六,,Hori,late,right,image/Chi_late.png,"[-0.4, 0]","[0.4, 0]",2,congruent,,,,,,,,,,,,,,0,17,17,16,,,,,,,,,,,,,,,,,,,,,,,,,,,,,,,,,,,,,,,,,,,,,,,,,,,,,247.7700787000358,1.01164169999538,248.77849340002285,248.86210940004094,249.6616302000475,249.7616758000222,249.7616758000222,249.7616758000222,right,1,0.9350966999772936,,,,,,,,,,,,,,,,,,,,,,,,,,,,,,,,,,,,,007,001,2023-11-19_13h15.05.447,ETproject_Chi_2023.1.1,2023.1.1,59.98098601532278,
139,Week,星期四,星期一,,Vert,early,down,image/Chi_early.png,"[0, 0.4]","[0, -0.4]",3,incongruent,,,,,,,,,,,,,,0,18,18,7,,,,,,,,,,,,,,,,,,,,,,,,,,,,,,,,,,,,,,,,,,,,,,,,,,,,,250.7397920000367,1.0109889000304975,251.7442899000016,251.8275553000276,252.62752850004472,252.72741220000898,252.72741220000898,252.72741220000898,down,1,1.1518661999725737,,,,,,,,,,,,,,,,,,,,,,,,,,,,,,,,,,,,,007,001,2023-11-19_13h15.05.447,ETproject_Chi_2023.1.1,2023.1.1,59.98098601532278,
24,Month,四月,六月,,Vert,early,up,image/Chi_early.png,"[0, 0.4]","[0, -0.4]",2,congruent,,,,,,,,,,,,,,0,19,19,8,,,,,,,,,,,,,,,,,,,,,,,,,,,,,,,,,,,,,,,,,,,,,,,,,,,,,253.92018700001063,1.0111647000303492,254.92658369999845,255.01005060004536,255.80960360000608,255.90965159999905,255.90965159999905,255.90965159999905,up,1,1.193492199992761,,,,,,,,,,,,,,,,,,,,,,,,,,,,,,,,,,,,,007,001,2023-11-19_13h15.05.447,ETproject_Chi_2023.1.1,2023.1.1,59.98098601532278,
136,Week,星期日,星期五,,Hori,late,left,image/Chi_late.png,"[-0.4, 0]","[0.4, 0]",2,incongruent,,,,,,,,,,,,,,0,20,20,17,,,,,,,,,,,,,,,,,,,,,,,,,,,,,,,,,,,,,,,,,,,,,,,,,,,,,257.13505890005035,0.9990478999679908,258.1422087000101,258.22549690003507,259.0251547000371,259.12516310001956,259.12516310001956,259.12516310001956,left,1,1.0427273999666795,,,,,,,,,,,,,,,,,,,,,,,,,,,,,,,,,,,,,007,001,2023-11-19_13h15.05.447,ETproject_Chi_2023.1.1,2023.1.1,59.98098601532278,
114,Week,星期四,星期日,,Vert,early,up,image/Chi_early.png,"[0, 0.4]","[0, -0.4]",3,congruent,,,,,,,,,,,,,,0,21,21,12,,,,,,,,,,,,,,,,,,,,,,,,,,,,,,,,,,,,,,,,,,,,,,,,,,,,,260.2081898000324,1.0120189000153914,261.2077539000311,261.2913272000151,262.0908524999977,262.19091510004364,262.19091510004364,262.19091510004364,up,1,1.0320910000009462,,,,,,,,,,,,,,,,,,,,,,,,,,,,,,,,,,,,,007,001,2023-11-19_13h15.05.447,ETproject_Chi_2023.1.1,2023.1.1,59.98098601532278,
34,Month,六月,二月,,Hori,early,right,image/Chi_early.png,"[-0.4, 0]","[0.4, 0]",4,incongruent,,,,,,,,,,,,,,0,22,22,21,,,,,,,,,,,,,,,,,,,,,,,,,,,,,,,,,,,,,,,,,,,,,,,,,,,,,263.24509390001185,1.0151045999955386,264.2567127000075,264.34014510002453,265.1398198000388,265.2397790000541,265.2397790000541,265.2397790000541,right,1,0.935819000005722,,,,,,,,,,,,,,,,,,,,,,,,,,,,,,,,,,,,,007,001,2023-11-19_13h15.05.447,ETproject_Chi_2023.1.1,2023.1.1,59.98098601532278,
62,Month,十月 ,六月,,Vert,late,up,image/Chi_late.png,"[0, 0.4]","[0, -0.4]",4,incongruent,,,,,,,,,,,,,,0,23,23,27,,,,,,,,,,,,,,,,,,,,,,,,,,,,,,,,,,,,,,,,,,,,,,,,,,,,,266.2145216000499,1.0146095000091009,267.2224871000508,267.30587570002535,268.1056763000088,268.20573030004743,268.20573030004743,268.20573030004743,up,1,0.9534398000105284,,,,,,,,,,,,,,,,,,,,,,,,,,,,,,,,,,,,,007,001,2023-11-19_13h15.05.447,ETproject_Chi_2023.1.1,2023.1.1,59.98098601532278,
116,Week,星期六,星期日,,Vert,early,up,image/Chi_early.png,"[0, 0.4]","[0, -0.4]",1,congruent,,,,,,,,,,,,,,0,24,24,10,,,,,,,,,,,,,,,,,,,,,,,,,,,,,,,,,,,,,,,,,,,,,,,,,,,,,269.1998294000514,1.0118713999981992,270.2048616000102,270.28830350004137,271.0878414000035,271.18803110002773,271.18803110002773,271.18803110002773,up,1,1.2601161999627948,,,,,,,,,,,,,,,,,,,,,,,,,,,,,,,,,,,,,007,001,2023-11-19_13h15.05.447,ETproject_Chi_2023.1.1,2023.1.1,59.98098601532278,
148,Week,星期六,星期三 ,,Vert,late,up,image/Chi_late.png,"[0, 0.4]","[0, -0.4]",3,incongruent,,,,,,,,,,,,,,0,25,25,26,,,,,,,,,,,,,,,,,,,,,,,,,,,,,,,,,,,,,,,,,,,,,,,,,,,,,272.4833033000468,1.0122210000408813,273.48707260005176,273.5704372000182,274.370161800005,274.47022950003156,274.47022950003156,274.47022950003156,up,1,1.1215260000317357,,,,,,,,,,,,,,,,,,,,,,,,,,,,,,,,,,,,,007,001,2023-11-19_13h15.05.447,ETproject_Chi_2023.1.1,2023.1.1,59.98098601532278,
101,Week,星期五,星期日,,Hori,early,left,image/Chi_early.png,"[-0.4, 0]","[0.4, 0]",2,congruent,,,,,,,,,,,,,,0,26,26,40,,,,,,,,,,,,,,,,,,,,,,,,,,,,,,,,,,,,,,,,,,,,,,,,,,,,,275.634014100011,1.01393159996951,276.6360334000201,276.7195388000109,277.5192524000304,277.6190685000038,277.6190685000038,277.6190685000038,left,1,1.028366399987135,,,,,,,,,,,,,,,,,,,,,,,,,,,,,,,,,,,,,007,001,2023-11-19_13h15.05.447,ETproject_Chi_2023.1.1,2023.1.1,59.98098601532278,
24,Month,六月,九月 ,,Vert,early,up,image/Chi_early.png,"[0, 0.4]","[0, -0.4]",3,congruent,,,,,,,,,,,,,,0,27,27,33,,,,,,,,,,,,,,,,,,,,,,,,,,,,,,,,,,,,,,,,,,,,,,,,,,,,,278.67536300001666,1.0126581000513397,279.6850639000186,279.76837390003493,280.5680738000083,280.66819500003476,280.66819500003476,280.66819500003476,up,1,1.0037564000231214,,,,,,,,,,,,,,,,,,,,,,,,,,,,,,,,,,,,,007,001,2023-11-19_13h15.05.447,ETproject_Chi_2023.1.1,2023.1.1,59.98098601532278,
132,Week,星期四,星期一,,Hori,late,left,image/Chi_late.png,"[-0.4, 0]","[0.4, 0]",3,incongruent,,,,,,,,,,,,,,0,28,28,19,,,,,,,,,,,,,,,,,,,,,,,,,,,,,,,,,,,,,,,,,,,,,,,,,,,,,281.71260900003836,1.0133995999931358,282.71733830001904,282.8009391000378,283.6005315000075,283.70051200001035,283.70051200001035,283.70051200001035,left,1,1.0033834999776445,,,,,,,,,,,,,,,,,,,,,,,,,,,,,,,,,,,,,007,001,2023-11-19_13h15.05.447,ETproject_Chi_2023.1.1,2023.1.1,59.98098601532278,
6,Month,六月,十月 ,,Hori,early,left,image/Chi_early.png,"[-0.4, 0]","[0.4, 0]",4,congruent,,,,,,,,,,,,,,0,29,29,29,,,,,,,,,,,,,,,,,,,,,,,,,,,,,,,,,,,,,,,,,,,,,,,,,,,,,284.7483693000395,1.0108394999988377,285.74978000001283,285.8331128000282,286.63275080005405,286.73267040000064,286.73267040000064,286.73267040000064,left,1,1.0590892999898642,,,,,,,,,,,,,,,,,,,,,,,,,,,,,,,,,,,,,007,001,2023-11-19_13h15.05.447,ETproject_Chi_2023.1.1,2023.1.1,59.98098601532278,
98,Week,星期二,星期三 ,,Hori,early,left,image/Chi_early.png,"[-0.4, 0]","[0.4, 0]",1,congruent,,,,,,,,,,,,,,0,30,30,49,,,,,,,,,,,,,,,,,,,,,,,,,,,,,,,,,,,,,,,,,,,,,,,,,,,,,288.82008700002916,1.015232800040394,289.83193980000215,289.9150676000281,290.7147423000424,290.8146607000381,290.8146607000381,290.8146607000381,left,1,0.9463333999738097,,,,,,,,,,,,,,,,,,,,,,,,,,,,,,,,,,,,,007,001,2023-11-19_13h15.05.447,ETproject_Chi_2023.1.1,2023.1.1,59.98098601532278,
78,Month,十月 ,八月,,Vert,late,up,image/Chi_late.png,"[0, 0.4]","[0, -0.4]",2,incongruent,,,,,,,,,,,,,,0,31,31,44,,,,,,,,,,,,,,,,,,,,,,,,,,,,,,,,,,,,,,,,,,,,,,,,,,,,,291.7923110999982,1.0151101000374183,292.7973689000355,292.88084860000527,293.68039110000245,293.7805520000402,293.7805520000402,293.7805520000402,up,1,1.347130800015293,,,,,,,,,,,,,,,,,,,,,,,,,,,,,,,,,,,,,007,001,2023-11-19_13h15.05.447,ETproject_Chi_2023.1.1,2023.1.1,59.98098601532278,
38,Month,八月,十月 ,,Vert,late,down,image/Chi_late.png,"[0, 0.4]","[0, -0.4]",2,congruent,,,,,,,,,,,,,,0,32,32,37,,,,,,,,,,,,,,,,,,,,,,,,,,,,,,,,,,,,,,,,,,,,,,,,,,,,,295.15541600005236,1.0118495000060648,296.16290100000333,296.24632540001767,297.0461394000449,297.14604469999904,297.14604469999904,297.14604469999904,down,1,1.0779524000245146,,,,,,,,,,,,,,,,,,,,,,,,,,,,,,,,,,,,,007,001,2023-11-19_13h15.05.447,ETproject_Chi_2023.1.1,2023.1.1,59.98098601532278,
142,Week,星期五,星期四,,Vert,early,down,image/Chi_early.png,"[0, 0.4]","[0, -0.4]",1,incongruent,,,,,,,,,,,,,,0,33,33,0,,,,,,,,,,,,,,,,,,,,,,,,,,,,,,,,,,,,,,,,,,,,,,,,,,,,,298.2562265000306,1.0155307999812067,299.262009099999,299.34520160005195,300.145072000043,300.2450672000414,300.2450672000414,300.2450672000414,down,1,1.2349085000460036,,,,,,,,,,,,,,,,,,,,,,,,,,,,,,,,,,,,,007,001,2023-11-19_13h15.05.447,ETproject_Chi_2023.1.1,2023.1.1,59.98098601532278,
1,Month,一月,二月 ,,Hori,early,left,image/Chi_early.png,"[-0.4, 0]","[0.4, 0]",1,congruent,,,,,,,,,,,,,,0,34,34,28,,,,,,,,,,,,,,,,,,,,,,,,,,,,,,,,,,,,,,,,,,,,,,,,,,,,,301.5193519000313,1.0121508000302128,302.5275570000522,302.6110513000167,303.4105918999994,303.5105561000528,303.5105561000528,303.5105561000528,left,1,0.936698500008788,,,,,,,,,,,,,,,,,,,,,,,,,,,,,,,,,,,,,007,001,2023-11-19_13h15.05.447,ETproject_Chi_2023.1.1,2023.1.1,59.98098601532278,
143,Week,星期六,星期五,,Vert,early,down,image/Chi_early.png,"[0, 0.4]","[0, -0.4]",1,incongruent,,,,,,,,,,,,,,0,35,35,36,,,,,,,,,,,,,,,,,,,,,,,,,,,,,,,,,,,,,,,,,,,,,,,,,,,,,304.4830503000412,1.0148427999811247,305.493233300047,305.5765988000203,306.37642210000195,306.4763038000092,306.4763038000092,306.4763038000092,down,1,1.0992550000082701,,,,,,,,,,,,,,,,,,,,,,,,,,,,,,,,,,,,,007,001,2023-11-19_13h15.05.447,ETproject_Chi_2023.1.1,2023.1.1,59.98098601532278,
50,Month,八月,五月,,Hori,late,left,image/Chi_late.png,"[-0.4, 0]","[0.4, 0]",3,incongruent,,,,,,,,,,,,,,0,36,36,35,,,,,,,,,,,,,,,,,,,,,,,,,,,,,,,,,,,,,,,,,,,,,,,,,,,,,307.60218020004686,1.0155904999701306,308.60893320001196,308.6921776000527,309.4918002000195,309.5918610000517,309.5918610000517,309.5918610000517,left,1,1.1277192000416107,,,,,,,,,,,,,,,,,,,,,,,,,,,,,,,,,,,,,007,001,2023-11-19_13h15.05.447,ETproject_Chi_2023.1.1,2023.1.1,59.98098601532278,
77,Month,九月 ,七月,,Vert,late,up,image/Chi_late.png,"[0, 0.4]","[0, -0.4]",2,incongruent,,,,,,,,,,,,,,0,37,37,43,,,,,,,,,,,,,,,,,,,,,,,,,,,,,,,,,,,,,,,,,,,,,,,,,,,,,310.7539675000007,1.0144391999929212,311.7577867000364,311.8413852000376,312.64082100003725,312.7409264000016,312.7409264000016,312.7409264000016,up,1,0.9633302000002004,,,,,,,,,,,,,,,,,,,,,,,,,,,,,,,,,,,,,007,001,2023-11-19_13h15.05.447,ETproject_Chi_2023.1.1,2023.1.1,59.98098601532278,
125,Week,星期三 ,星期一,,Hori,early,right,image/Chi_early.png,"[-0.4, 0]","[0.4, 0]",2,incongruent,,,,,,,,,,,,,,0,38,38,5,,,,,,,,,,,,,,,,,,,,,,,,,,,,,,,,,,,,,,,,,,,,,,,,,,,,,313.7382911000168,1.0140269999974407,314.7401946000173,314.8237714000279,315.62334400002146,315.72329410002567,315.72329410002567,315.72329410002567,right,1,0.8516136999824084,,,,,,,,,,,,,,,,,,,,,,,,,,,,,,,,,,,,,007,001,2023-11-19_13h15.05.447,ETproject_Chi_2023.1.1,2023.1.1,59.98098601532278,
45,Month,九月 ,五月,,Hori,late,left,image/Chi_late.png,"[-0.4, 0]","[0.4, 0]",4,incongruent,,,,,,,,,,,,,,0,39,39,39,,,,,,,,,,,,,,,,,,,,,,,,,,,,,,,,,,,,,,,,,,,,,,,,,,,,,316.61870320001617,1.010701599996537,317.62253450002754,317.70583580003586,318.50555630004965,318.60550380003406,318.60550380003406,318.60550380003406,left,1,0.8825728000374511,,,,,,,,,,,,,,,,,,,,,,,,,,,,,,,,,,,,,007,001,2023-11-19_13h15.05.447,ETproject_Chi_2023.1.1,2023.1.1,59.98098601532278,
46,Month,四月,一月,,Hori,late,left,image/Chi_late.png,"[-0.4, 0]","[0.4, 0]",3,incongruent,,,,,,,,,,,,,,0,40,40,14,,,,,,,,,,,,,,,,,,,,,,,,,,,,,,,,,,,,,,,,,,,,,,,,,,,,,319.51428910001414,1.0126152000157163,320.52152820001356,320.6051628999994,321.4047781000263,321.50465440005064,321.50465440005064,321.50465440005064,left,1,0.7191607999848202,,,,,,,,,,,,,,,,,,,,,,,,,,,,,,,,,,,,,007,001,2023-11-19_13h15.05.447,ETproject_Chi_2023.1.1,2023.1.1,59.98098601532278,
99,Week,星期三 ,星期六,,Hori,early,left,image/Chi_early.png,"[-0.4, 0]","[0.4, 0]",3,congruent,,,,,,,,,,,,,,0,41,41,6,,,,,,,,,,,,,,,,,,,,,,,,,,,,,,,,,,,,,,,,,,,,,,,,,,,,,322.26853580004536,1.0120528999832459,323.27091449999716,323.3540388000547,324.15383650001604,324.2539190000389,324.2539190000389,324.2539190000389,left,1,0.8658315000357106,,,,,,,,,,,,,,,,,,,,,,,,,,,,,,,,,,,,,007,001,2023-11-19_13h15.05.447,ETproject_Chi_2023.1.1,2023.1.1,59.98098601532278,
112,Week,星期二,星期三 ,,Vert,early,up,image/Chi_early.png,"[0, 0.4]","[0, -0.4]",1,congruent,,,,,,,,,,,,,,0,42,42,31,,,,,,,,,,,,,,,,,,,,,,,,,,,,,,,,,,,,,,,,,,,,,,,,,,,,,325.14118610002333,1.0155324000515975,326.1531725000241,326.2363672000356,327.0360937000369,327.1363035000395,327.1363035000395,327.1363035000395,up,1,0.8164851000183262,,,,,,,,,,,,,,,,,,,,,,,,,,,,,,,,,,,,,007,001,2023-11-19_13h15.05.447,ETproject_Chi_2023.1.1,2023.1.1,59.98098601532278,
150,Week,星期六,星期五,,Vert,late,up,image/Chi_late.png,"[0, 0.4]","[0, -0.4]",1,incongruent,,,,,,,,,,,,,,0,43,43,23,,,,,,,,,,,,,,,,,,,,,,,,,,,,,,,,,,,,,,,,,,,,,,,,,,,,,327.9845179000404,1.0114659000537358,328.9854467000114,329.06885160005186,329.8685148000368,329.9685596000054,329.9685596000054,329.9685596000054,up,1,0.8163163000135683,,,,,,,,,,,,,,,,,,,,,,,,,,,,,,,,,,,,,007,001,2023-11-19_13h15.05.447,ETproject_Chi_2023.1.1,2023.1.1,59.98098601532278,
112,Week,星期二,星期五,,Vert,early,up,image/Chi_early.png,"[0, 0.4]","[0, -0.4]",3,congruent,,,,,,,,,,,,,,0,44,44,24,,,,,,,,,,,,,,,,,,,,,,,,,,,,,,,,,,,,,,,,,,,,,,,,,,,,,330.8197912000469,1.0112170999636874,331.81787290005013,331.90112420002697,332.70085070002824,332.80091650004033,332.80091650004033,332.80091650004033,up,1,0.8548674000194296,,,,,,,,,,,,,,,,,,,,,,,,,,,,,,,,,,,,,007,001,2023-11-19_13h15.05.447,ETproject_Chi_2023.1.1,2023.1.1,59.98098601532278,
26,Month,六月,八月,,Vert,early,up,image/Chi_early.png,"[0, 0.4]","[0, -0.4]",2,congruent,,,,,,,,,,,,,,0,45,45,32,,,,,,,,,,,,,,,,,,,,,,,,,,,,,,,,,,,,,,,,,,,,,,,,,,,,,333.69370260002324,1.012254400004167,334.700304900005,334.783630800026,335.5832802000223,335.68339910003124,335.68339910003124,335.68339910003124,up,1,0.9404756999574602,,,,,,,,,,,,,,,,,,,,,,,,,,,,,,,,,,,,,007,001,2023-11-19_13h15.05.447,ETproject_Chi_2023.1.1,2023.1.1,59.98098601532278,
58,Month,六月,二月,,Vert,late,up,image/Chi_late.png,"[0, 0.4]","[0, -0.4]",4,incongruent,,,,,,,,,,,,,,0,46,46,18,,,,,,,,,,,,,,,,,,,,,,,,,,,,,,,,,,,,,,,,,,,,,,,,,,,,,336.6707167000277,1.010206200007815,337.68261880002683,337.74931810004637,338.54910200001905,338.64903560001403,338.64903560001403,338.64903560001403,up,1,0.9019205999793485,,,,,,,,,,,,,,,,,,,,,,,,,,,,,,,,,,,,,007,001,2023-11-19_13h15.05.447,ETproject_Chi_2023.1.1,2023.1.1,59.98098601532278,
141,Week,星期五,星期三 ,,Vert,early,down,image/Chi_early.png,"[0, 0.4]","[0, -0.4]",2,incongruent,,,,,,,,,,,,,,0,47,47,15,,,,,,,,,,,,,,,,,,,,,,,,,,,,,,,,,,,,,,,,,,,,,,,,,,,,,339.5941318999976,1.010529699968174,340.5983058999991,340.6815612000064,341.4815409000148,341.5813619000255,341.5813619000255,341.5813619000255,down,1,1.0749090999597684,,,,,,,,,,,,,,,,,,,,,,,,,,,,,,,,,,,,,007,001,2023-11-19_13h15.05.447,ETproject_Chi_2023.1.1,2023.1.1,59.98098601532278,
20,Month,四月,八月,,Vert,early,up,image/Chi_early.png,"[0, 0.4]","[0, -0.4]",4,congruent,,,,,,,,,,,,,,0,48,48,4,,,,,,,,,,,,,,,,,,,,,,,,,,,,,,,,,,,,,,,,,,,,,,,,,,,,,342.6867044000537,0.9994957000017166,343.6973402000149,343.7806573000271,344.58030280005187,344.68033000000287,344.68033000000287,344.68033000000287,up,1,0.7996309000300243,,,,,,,,,,,,,,,,,,,,,,,,,,,,,,,,,,,,,007,001,2023-11-19_13h15.05.447,ETproject_Chi_2023.1.1,2023.1.1,59.98098601532278,
101,Week,星期五,星期六,,Hori,early,left,image/Chi_early.png,"[-0.4, 0]","[0.4, 0]",1,congruent,,,,,,,,,,,,,,0,49,49,42,,,,,,,,,,,,,,,,,,,,,,,,,,,,,,,,,,,,,,,,,,,,,,,,,,,,,345.5029732999974,1.0140874999924563,346.51308290002635,346.5962897000136,347.3959227000014,347.49610040005064,347.49610040005064,347.49610040005064,left,1,0.823929300007876,,,,,,,,,,,,,,,,,,,,,,,,,,,,,,,,,,,,,007,001,2023-11-19_13h15.05.447,ETproject_Chi_2023.1.1,2023.1.1,59.98098601532278,
,,,,,,,,,,,,,,,,,,,,,,,,,,,,,,,,,,,,,,,,,,,,,,,,,,,,,,,,,,,,,,,,,,,,,,,,,,,,,,,,,,,,,,,,,,,,,348.34602560003987,348.34602560003987,space,14.278252199990675,,,,,,,,,,,,,,,,,,,,,,,,,,,,,,,,,007,001,2023-11-19_13h15.05.447,ETproject_Chi_2023.1.1,2023.1.1,59.98098601532278,
,,,,,,,,,,,,,Spring 4.jpg,这是秋天吗？,否,Right,Break_material/Image/Spring 4.jpg,,,,,,,,,,,,,0,0,0,3,,,,,,,,,,,,,,,,,,,,,,,,,,,,,,,,,,,,,,,,,,,,,,,,,,,,,,,,,,,,,,,,362.91173570003593,366.6271306000417,366.9063978000195,368.63905670004897,368.63905670004897,368.63905670004897,368.63905670004897,right,0,2.592376999964472,,,,,,,,,,,,,,,,,,,,,,,007,001,2023-11-19_13h15.05.447,ETproject_Chi_2023.1.1,2023.1.1,59.98098601532278,
,,,,,,,,,,,,,Spring 1.jpg,这是春天吗？,是,Left,Break_material/Image/Spring 1.jpg,,,,,,,,,,,,,0,1,1,0,,,,,,,,,,,,,,,,,,,,,,,,,,,,,,,,,,,,,,,,,,,,,,,,,,,,,,,,,,,,,,,,371.34960490005324,375.2401550000068,375.3535379000241,377.2532452000305,377.2532452000305,377.2532452000305,377.2532452000305,left,0,0.46591510000871494,,,,,,,,,,,,,,,,,,,,,,,007,001,2023-11-19_13h15.05.447,ETproject_Chi_2023.1.1,2023.1.1,59.98098601532278,
,,,,,,,,,,,,,Spring 5.jpg,这是冬天吗？,否,Right,Break_material/Image/Spring 5.jpg,,,,,,,,,,,,,0,2,2,4,,,,,,,,,,,,,,,,,,,,,,,,,,,,,,,,,,,,,,,,,,,,,,,,,,,,,,,,,,,,,,,,378.2467281999998,381.7233644000371,382.25156080001034,383.7345303000184,383.7345303000184,383.7345303000184,383.7345303000184,right,0,0.4898669000249356,,,,,,,,,,,,,,,,,,,,,,,007,001,2023-11-19_13h15.05.447,ETproject_Chi_2023.1.1,2023.1.1,59.98098601532278,
,,,,,,,,,,,,,Spring 3.jpg,这是夏天吗？,否,Right,Break_material/Image/Spring 3.jpg,,,,,,,,,,,,,0,3,3,2,,,,,,,,,,,,,,,,,,,,,,,,,,,,,,,,,,,,,,,,,,,,,,,,,,,,,,,,,,,,,,,,384.4977690000087,388.2374908000347,388.4994119000039,390.2488455999992,390.2488455999992,390.2488455999992,390.2488455999992,left,0,0.5756118999561295,,,,,,,,,,,,,,,,,,,,,,,007,001,2023-11-19_13h15.05.447,ETproject_Chi_2023.1.1,2023.1.1,59.98098601532278,
,,,,,,,,,,,,,Spring 6.jpg,这是春天吗？,是,Left,Break_material/Image/Spring 6.jpg,,,,,,,,,,,,,0,4,4,5,,,,,,,,,,,,,,,,,,,,,,,,,,,,,,,,,,,,,,,,,,,,,,,,,,,,,,,,,,,,,,,,391.44688699999824,394.83695860003354,395.44713640003465,396.8467183000175,396.8467183000175,396.8467183000175,396.8467183000175,right,0,2.1524481999804266,,,,,,,,,,,,,,,,,,,,,,,007,001,2023-11-19_13h15.05.447,ETproject_Chi_2023.1.1,2023.1.1,59.98098601532278,
,,,,,,,,,,,,,Spring 2.jpg,这是冬天吗？,否,Right,Break_material/Image/Spring 2.jpg,,,,,,,,,,,,,0,5,5,1,,,,,,,,,,,,,,,,,,,,,,,,,,,,,,,,,,,,,,,,,,,,,,,,,,,,,,,,,,,,,,,,399.29375700000674,403.0148780000163,403.2942715000245,405.0270775000099,405.0270775000099,405.0270775000099,405.0270775000099,right,0,0.9817086000111885,,,,,,,,,,,,,,,,,,,,,,,007,001,2023-11-19_13h15.05.447,ETproject_Chi_2023.1.1,2023.1.1,59.98098601532278,
,,,,,,,,,,,,,,,,,,,,,,,,,,,,,,,,,,,,,,,,,,,,,,,,,,,,,,,,,,,,,,,,,,,,,,,,,,,,,,,,,,,,,,,,,,,,,,,,,,,,,,,,,,,406.02687040000455,406.02687040000455,space,2.7569101999979466,,,,,,,,,,,,,,,,,,,007,001,2023-11-19_13h15.05.447,ETproject_Chi_2023.1.1,2023.1.1,59.98098601532278,
114,Week,星期四,星期五,,Vert,early,up,image/Chi_early.png,"[0, 0.4]","[0, -0.4]",1,congruent,,,,,,,,,,,,,,,,,,,,,,0,0,0,10,,,,,,,,,,,,,,,,,,,,,,,,,,,,,,,,,,,,,,,,,,,,,408.8232028000057,0.9994259999948554,409.8255523000262,409.9087961000041,410.7084806000348,410.8085549000534,410.8085549000534,410.8085549000534,up,1,0.9185882000019774,,,,,,,,,,,,,,,,,,,,,,,,,,,,,,,,,,,,,007,001,2023-11-19_13h15.05.447,ETproject_Chi_2023.1.1,2023.1.1,59.98098601532278,
65,Month,七月,五月,,Vert,early,down,image/Chi_early.png,"[0, 0.4]","[0, -0.4]",2,incongruent,,,,,,,,,,,,,,,,,,,,,,0,1,1,11,,,,,,,,,,,,,,,,,,,,,,,,,,,,,,,,,,,,,,,,,,,,,411.76729240000714,1.0115359000046737,412.774633300025,412.85780030000024,413.6575873999973,413.75754980003694,413.75754980003694,413.75754980003694,down,1,0.8103879999835044,,,,,,,,,,,,,,,,,,,,,,,,,,,,,,,,,,,,,007,001,2023-11-19_13h15.05.447,ETproject_Chi_2023.1.1,2023.1.1,59.98098601532278,
14,Month,四月,六月,,Hori,late,right,image/Chi_late.png,"[-0.4, 0]","[0.4, 0]",2,congruent,,,,,,,,,,,,,,,,,,,,,,0,2,2,26,,,,,,,,,,,,,,,,,,,,,,,,,,,,,,,,,,,,,,,,,,,,,414.6145389000303,1.010961199994199,415.62382340000477,415.6903279000544,416.4900453000446,416.590044600016,416.590044600016,416.590044600016,right,1,0.9701609000330791,,,,,,,,,,,,,,,,,,,,,,,,,,,,,,,,,,,,,007,001,2023-11-19_13h15.05.447,ETproject_Chi_2023.1.1,2023.1.1,59.98098601532278,
57,Month,三月,二月,,Hori,late,left,image/Chi_late.png,"[-0.4, 0]","[0.4, 0]",1,incongruent,,,,,,,,,,,,,,,,,,,,,,0,3,3,13,,,,,,,,,,,,,,,,,,,,,,,,,,,,,,,,,,,,,,,,,,,,,417.5972728000488,1.0116296999622136,418.60598350001965,418.68929360003676,419.48907460004557,419.5889286000165,419.5889286000165,419.5889286000165,left,1,0.7545201000175439,,,,,,,,,,,,,,,,,,,,,,,,,,,,,,,,,,,,,007,001,2023-11-19_13h15.05.447,ETproject_Chi_2023.1.1,2023.1.1,59.98098601532278,
55,Month,四月,一月,,Vert,early,down,image/Chi_early.png,"[0, 0.4]","[0, -0.4]",3,incongruent,,,,,,,,,,,,,,,,,,,,,,0,4,4,22,,,,,,,,,,,,,,,,,,,,,,,,,,,,,,,,,,,,,,,,,,,,,420.38372199999867,0.9993741000071168,421.3883449000423,421.47174080001423,422.2715631000465,422.3714226000011,422.3714226000011,422.3714226000011,up,0,1.045112900028471,,,,,,,,,,,,,,,,,,,,,,,,,,,,,,,,,,,,,007,001,2023-11-19_13h15.05.447,ETproject_Chi_2023.1.1,2023.1.1,59.98098601532278,
84,Month,八月,七月,,Vert,late,up,image/Chi_late.png,"[0, 0.4]","[0, -0.4]",1,incongruent,,,,,,,,,,,,,,,,,,,,,,0,5,5,18,,,,,,,,,,,,,,,,,,,,,,,,,,,,,,,,,,,,,,,,,,,,,423.4463383000111,1.0150480999727733,424.4541470000404,424.5374211000162,425.337216600019,425.4371013000491,425.4371013000491,425.4371013000491,up,1,1.2340564000187442,,,,,,,,,,,,,,,,,,,,,,,,,,,,,,,,,,,,,007,001,2023-11-19_13h15.05.447,ETproject_Chi_2023.1.1,2023.1.1,59.98098601532278,
42,Month,九月 ,十月 ,,Vert,late,down,image/Chi_late.png,"[0, 0.4]","[0, -0.4]",1,congruent,,,,,,,,,,,,,,,,,,,,,,0,6,6,0,,,,,,,,,,,,,,,,,,,,,,,,,,,,,,,,,,,,,,,,,,,,,426.70663970004534,0.999292400025297,427.7196525000036,427.80311040004017,428.60261070000706,428.70262110000476,428.70262110000476,428.70262110000476,up,0,0.7933216000092216,,,,,,,,,,,,,,,,,,,,,,,,,,,,,,,,,,,,,007,001,2023-11-19_13h15.05.447,ETproject_Chi_2023.1.1,2023.1.1,59.98098601532278,
61,Month,十月 ,七月,,Vert,early,down,image/Chi_early.png,"[0, 0.4]","[0, -0.4]",3,incongruent,,,,,,,,,,,,,,,,,,,,,,0,7,7,16,,,,,,,,,,,,,,,,,,,,,,,,,,,,,,,,,,,,,,,,,,,,,429.53044400003273,1.0135068999952637,430.53531340003246,430.6187199000269,431.4184375000186,431.5184335000231,431.5184335000231,431.5184335000231,down,1,1.4010290000005625,,,,,,,,,,,,,,,,,,,,,,,,,,,,,,,,,,,,,007,001,2023-11-19_13h15.05.447,ETproject_Chi_2023.1.1,2023.1.1,59.98098601532278,
18,Month,九月 ,十二月,,Hori,late,right,image/Chi_late.png,"[-0.4, 0]","[0.4, 0]",3,congruent,,,,,,,,,,,,,,,,,,,,,,0,8,8,9,,,,,,,,,,,,,,,,,,,,,,,,,,,,,,,,,,,,,,,,,,,,,432.95879100001184,0.999200500024017,433.9675684000249,434.0509637000505,434.85078280000016,434.95068790001096,434.95068790001096,434.95068790001096,right,1,0.937061199976597,,,,,,,,,,,,,,,,,,,,,,,,,,,,,,,,,,,,,007,001,2023-11-19_13h15.05.447,ETproject_Chi_2023.1.1,2023.1.1,59.98098601532278,
16,Month,八月,十二月,,Hori,late,right,image/Chi_late.png,"[-0.4, 0]","[0.4, 0]",4,congruent,,,,,,,,,,,,,,,,,,,,,,0,9,9,27,,,,,,,,,,,,,,,,,,,,,,,,,,,,,,,,,,,,,,,,,,,,,435.92481300001964,1.0133881000219844,436.93321670003934,437.0166301000281,437.8162873000256,437.91639640001813,437.91639640001813,437.91639640001813,right,1,0.9071093999664299,,,,,,,,,,,,,,,,,,,,,,,,,,,,,,,,,,,,,007,001,2023-11-19_13h15.05.447,ETproject_Chi_2023.1.1,2023.1.1,59.98098601532278,
102,Week,星期六,星期日,,Hori,early,left,image/Chi_early.png,"[-0.4, 0]","[0.4, 0]",1,congruent,,,,,,,,,,,,,,,,,,,,,,0,10,10,15,,,,,,,,,,,,,,,,,,,,,,,,,,,,,,,,,,,,,,,,,,,,,438.8610215000226,1.0119659999618307,439.8655740999966,439.948889100051,440.74860020005144,440.8487501000054,440.8487501000054,440.8487501000054,left,1,1.4232658999972045,,,,,,,,,,,,,,,,,,,,,,,,,,,,,,,,,,,,,007,001,2023-11-19_13h15.05.447,ETproject_Chi_2023.1.1,2023.1.1,59.98098601532278,
53,Month,五月,三月,,Hori,late,left,image/Chi_late.png,"[-0.4, 0]","[0.4, 0]",2,incongruent,,,,,,,,,,,,,,,,,,,,,,0,11,11,2,,,,,,,,,,,,,,,,,,,,,,,,,,,,,,,,,,,,,,,,,,,,,442.3056029000436,1.0150362999993376,443.31442330003483,443.39778180001304,444.19767790002516,444.2976106000133,444.2976106000133,444.2976106000133,left,1,1.1427470999769866,,,,,,,,,,,,,,,,,,,,,,,,,,,,,,,,,,,,,007,001,2023-11-19_13h15.05.447,ETproject_Chi_2023.1.1,2023.1.1,59.98098601532278,
126,Week,星期五,星期二,,Hori,early,right,image/Chi_early.png,"[-0.4, 0]","[0.4, 0]",3,incongruent,,,,,,,,,,,,,,,,,,,,,,0,12,12,17,,,,,,,,,,,,,,,,,,,,,,,,,,,,,,,,,,,,,,,,,,,,,445.47751350002363,1.0147140999906696,446.4801141000353,446.5634972000262,447.3633328000433,447.46313010004815,447.46313010004815,447.46313010004815,right,1,0.8011775999912061,,,,,,,,,,,,,,,,,,,,,,,,,,,,,,,,,,,,,007,001,2023-11-19_13h15.05.447,ETproject_Chi_2023.1.1,2023.1.1,59.98098601532278,
13,Month,二月,三月,,Hori,late,right,image/Chi_late.png,"[-0.4, 0]","[0.4, 0]",1,congruent,,,,,,,,,,,,,,,,,,,,,,0,13,13,42,,,,,,,,,,,,,,,,,,,,,,,,,,,,,,,,,,,,,,,,,,,,,448.31375160004245,1.0114072000142187,449.312544000044,449.3958929000073,450.19553280004766,450.29560120002134,450.29560120002134,450.29560120002134,right,1,1.1353904999559745,,,,,,,,,,,,,,,,,,,,,,,,,,,,,,,,,,,,,007,001,2023-11-19_13h15.05.447,ETproject_Chi_2023.1.1,2023.1.1,59.98098601532278,
142,Week,星期日,星期四,,Vert,early,down,image/Chi_early.png,"[0, 0.4]","[0, -0.4]",3,incongruent,,,,,,,,,,,,,,,,,,,,,,0,14,14,35,,,,,,,,,,,,,,,,,,,,,,,,,,,,,,,,,,,,,,,,,,,,,451.4740924000507,1.0110091000096872,452.47812949999934,452.56171780003933,453.3612523000338,453.4614620000357,453.4614620000357,453.4614620000357,down,1,1.0022437000297941,,,,,,,,,,,,,,,,,,,,,,,,,,,,,,,,,,,,,007,001,2023-11-19_13h15.05.447,ETproject_Chi_2023.1.1,2023.1.1,59.98098601532278,
7,Month,七月,十一月 ,,Hori,early,left,image/Chi_early.png,"[-0.4, 0]","[0.4, 0]",4,congruent,,,,,,,,,,,,,,,,,,,,,,0,15,15,49,,,,,,,,,,,,,,,,,,,,,,,,,,,,,,,,,,,,,,,,,,,,,454.50272040005075,1.0111376999993809,455.5104190999991,455.593912500015,456.39362690004054,456.49351340002613,456.49351340002613,456.49351340002613,left,1,0.8745974999619648,,,,,,,,,,,,,,,,,,,,,,,,,,,,,,,,,,,,,007,001,2023-11-19_13h15.05.447,ETproject_Chi_2023.1.1,2023.1.1,59.98098601532278,
16,Month,七月,十月 ,,Hori,late,right,image/Chi_late.png,"[-0.4, 0]","[0.4, 0]",3,congruent,,,,,,,,,,,,,,,,,,,,,,0,16,16,43,,,,,,,,,,,,,,,,,,,,,,,,,,,,,,,,,,,,,,,,,,,,,457.4014421000029,1.0133847999968566,458.4094970000442,458.4928221000009,459.29256710002664,459.3926099000382,459.3926099000382,459.3926099000382,right,1,0.8869432000210509,,,,,,,,,,,,,,,,,,,,,,,,,,,,,,,,,,,,,007,001,2023-11-19_13h15.05.447,ETproject_Chi_2023.1.1,2023.1.1,59.98098601532278,
134,Week,星期五,星期三 ,,Hori,late,left,image/Chi_late.png,"[-0.4, 0]","[0.4, 0]",2,incongruent,,,,,,,,,,,,,,,,,,,,,,0,17,17,47,,,,,,,,,,,,,,,,,,,,,,,,,,,,,,,,,,,,,,,,,,,,,461.3153154000174,1.0147573000285774,462.32488020003075,462.4081744000432,463.2080887000193,463.3080385000212,463.3080385000212,463.3080385000212,left,1,0.8114957999787293,,,,,,,,,,,,,,,,,,,,,,,,,,,,,,,,,,,,,007,001,2023-11-19_13h15.05.447,ETproject_Chi_2023.1.1,2023.1.1,59.98098601532278,
34,Month,四月,六月,,Vert,late,down,image/Chi_late.png,"[0, 0.4]","[0, -0.4]",2,congruent,,,,,,,,,,,,,,,,,,,,,,0,18,18,38,,,,,,,,,,,,,,,,,,,,,,,,,,,,,,,,,,,,,,,,,,,,,464.1505376000423,1.0107060000300407,465.15724550001323,465.24064560001716,466.04042720003054,466.14061010000296,466.14061010000296,466.14061010000296,down,1,1.1073742000153288,,,,,,,,,,,,,,,,,,,,,,,,,,,,,,,,,,,,,007,001,2023-11-19_13h15.05.447,ETproject_Chi_2023.1.1,2023.1.1,59.98098601532278,
46,Month,八月,六月,,Hori,early,right,image/Chi_early.png,"[-0.4, 0]","[0.4, 0]",2,incongruent,,,,,,,,,,,,,,,,,,,,,,0,19,19,6,,,,,,,,,,,,,,,,,,,,,,,,,,,,,,,,,,,,,,,,,,,,,467.2883514999994,1.011439900030382,468.2894457000075,468.372750700044,469.1729780000169,469.27286150003783,469.27286150003783,469.27286150003783,right,1,0.8235645000240766,,,,,,,,,,,,,,,,,,,,,,,,,,,,,,,,,,,,,007,001,2023-11-19_13h15.05.447,ETproject_Chi_2023.1.1,2023.1.1,59.98098601532278,
21,Month,十月 ,十一月 ,,Hori,late,right,image/Chi_late.png,"[-0.4, 0]","[0.4, 0]",1,congruent,,,,,,,,,,,,,,,,,,,,,,0,20,20,5,,,,,,,,,,,,,,,,,,,,,,,,,,,,,,,,,,,,,,,,,,,,,470.1362122000428,1.0103627999778837,471.13884900003904,471.222122200008,472.0219426000258,472.1220127000124,472.1220127000124,472.1220127000124,right,1,1.1009255000390112,,,,,,,,,,,,,,,,,,,,,,,,,,,,,,,,,,,,,007,001,2023-11-19_13h15.05.447,ETproject_Chi_2023.1.1,2023.1.1,59.98098601532278,
1,Month,一月,四月,,Hori,early,left,image/Chi_early.png,"[-0.4, 0]","[0.4, 0]",3,congruent,,,,,,,,,,,,,,,,,,,,,,0,21,21,34,,,,,,,,,,,,,,,,,,,,,,,,,,,,,,,,,,,,,,,,,,,,,473.2672462000046,1.01111000002129,474.27116830000887,474.3545204999973,475.15425479999976,475.2541515000048,475.2541515000048,475.2541515000048,left,1,0.7222553999745287,,,,,,,,,,,,,,,,,,,,,,,,,,,,,,,,,,,,,007,001,2023-11-19_13h15.05.447,ETproject_Chi_2023.1.1,2023.1.1,59.98098601532278,
2,Month,二月,五月,,Hori,early,left,image/Chi_early.png,"[-0.4, 0]","[0.4, 0]",3,congruent,,,,,,,,,,,,,,,,,,,,,,0,22,22,36,,,,,,,,,,,,,,,,,,,,,,,,,,,,,,,,,,,,,,,,,,,,,476.01427250000415,1.0109971999772824,477.0202086000354,477.1037342000054,477.90348570002243,478.0034802000155,478.0034802000155,478.0034802000155,left,1,0.6604151999927126,,,,,,,,,,,,,,,,,,,,,,,,,,,,,,,,,,,,,007,001,2023-11-19_13h15.05.447,ETproject_Chi_2023.1.1,2023.1.1,59.98098601532278,
39,Month,九月 ,十一月 ,,Vert,late,down,image/Chi_late.png,"[0, 0.4]","[0, -0.4]",2,congruent,,,,,,,,,,,,,,,,,,,,,,0,23,23,14,,,,,,,,,,,,,,,,,,,,,,,,,,,,,,,,,,,,,,,,,,,,,478.6955004000338,1.013604799984023,479.7029080000357,479.78591600002255,480.58586810005363,480.68580960005056,480.68580960005056,480.68580960005056,down,1,0.857120800006669,,,,,,,,,,,,,,,,,,,,,,,,,,,,,,,,,,,,,007,001,2023-11-19_13h15.05.447,ETproject_Chi_2023.1.1,2023.1.1,59.98098601532278,
11,Month,十一月 ,十二月,,Hori,early,left,image/Chi_early.png,"[-0.4, 0]","[0.4, 0]",1,congruent,,,,,,,,,,,,,,,,,,,,,,0,24,24,28,,,,,,,,,,,,,,,,,,,,,,,,,,,,,,,,,,,,,,,,,,,,,481.5803974000155,1.0124714000266977,482.585094100039,482.66848920000484,483.46808180003427,483.5678929000278,483.5678929000278,483.5678929000278,left,1,1.1036626999848522,,,,,,,,,,,,,,,,,,,,,,,,,,,,,,,,,,,,,007,001,2023-11-19_13h15.05.447,ETproject_Chi_2023.1.1,2023.1.1,59.98098601532278,
39,Month,十一月 ,七月,,Hori,early,right,image/Chi_early.png,"[-0.4, 0]","[0.4, 0]",4,incongruent,,,,,,,,,,,,,,,,,,,,,,0,25,25,40,,,,,,,,,,,,,,,,,,,,,,,,,,,,,,,,,,,,,,,,,,,,,484.70915580005385,1.0107986999792047,485.7175446000183,485.80066310003167,486.6005910000531,486.7007383000455,486.7007383000455,486.7007383000455,right,1,0.9240062999888323,,,,,,,,,,,,,,,,,,,,,,,,,,,,,,,,,,,,,007,001,2023-11-19_13h15.05.447,ETproject_Chi_2023.1.1,2023.1.1,59.98098601532278,
6,Month,六月,九月 ,,Hori,early,left,image/Chi_early.png,"[-0.4, 0]","[0.4, 0]",3,congruent,,,,,,,,,,,,,,,,,,,,,,0,26,26,25,,,,,,,,,,,,,,,,,,,,,,,,,,,,,,,,,,,,,,,,,,,,,487.65971710003214,1.0106224000337534,488.666541100014,488.74987210001564,489.5496232000296,489.64951780001866,489.64951780001866,489.64951780001866,left,1,1.0789256999851204,,,,,,,,,,,,,,,,,,,,,,,,,,,,,,,,,,,,,007,001,2023-11-19_13h15.05.447,ETproject_Chi_2023.1.1,2023.1.1,59.98098601532278,
60,Month,十二月,十月 ,,Hori,late,left,image/Chi_late.png,"[-0.4, 0]","[0.4, 0]",2,incongruent,,,,,,,,,,,,,,,,,,,,,,0,27,27,45,,,,,,,,,,,,,,,,,,,,,,,,,,,,,,,,,,,,,,,,,,,,,490.76439100003336,1.0120010999962687,491.7654817000148,491.8487706000451,492.64853700000094,492.74833160004346,492.74833160004346,492.74833160004346,left,1,0.9640510000172071,,,,,,,,,,,,,,,,,,,,,,,,,,,,,,,,,,,,,007,001,2023-11-19_13h15.05.447,ETproject_Chi_2023.1.1,2023.1.1,59.98098601532278,
57,Month,六月,三月,,Vert,early,down,image/Chi_early.png,"[0, 0.4]","[0, -0.4]",3,incongruent,,,,,,,,,,,,,,,,,,,,,,0,28,28,4,,,,,,,,,,,,,,,,,,,,,,,,,,,,,,,,,,,,,,,,,,,,,493.74273540003924,1.0106869000010192,494.74788950005313,494.83113310002955,495.63078210002277,495.73084740003105,495.73084740003105,495.73084740003105,down,1,1.0844151999917813,,,,,,,,,,,,,,,,,,,,,,,,,,,,,,,,,,,,,007,001,2023-11-19_13h15.05.447,ETproject_Chi_2023.1.1,2023.1.1,59.98098601532278,
25,Month,一月,五月,,Vert,late,down,image/Chi_late.png,"[0, 0.4]","[0, -0.4]",4,congruent,,,,,,,,,,,,,,,,,,,,,,0,29,29,23,,,,,,,,,,,,,,,,,,,,,,,,,,,,,,,,,,,,,,,,,,,,,496.8582612000173,1.0121616999967955,497.8636680000345,497.9467676000204,498.7466704000253,498.84644010005286,498.84644010005286,498.84644010005286,down,1,0.9538173000328243,,,,,,,,,,,,,,,,,,,,,,,,,,,,,,,,,,,,,007,001,2023-11-19_13h15.05.447,ETproject_Chi_2023.1.1,2023.1.1,59.98098601532278,
72,Month,四月,二月,,Vert,late,up,image/Chi_late.png,"[0, 0.4]","[0, -0.4]",2,incongruent,,,,,,,,,,,,,,,,,,,,,,0,30,30,41,,,,,,,,,,,,,,,,,,,,,,,,,,,,,,,,,,,,,,,,,,,,,499.83871070004534,1.0115300999605097,500.8457339000306,500.9291517000529,501.7287400000496,501.82885550003266,501.82885550003266,501.82885550003266,up,1,0.8432303000008687,,,,,,,,,,,,,,,,,,,,,,,,,,,,,,,,,,,,,007,001,2023-11-19_13h15.05.447,ETproject_Chi_2023.1.1,2023.1.1,59.98098601532278,
70,Month,十月 ,七月,,Vert,late,up,image/Chi_late.png,"[0, 0.4]","[0, -0.4]",3,incongruent,,,,,,,,,,,,,,,,,,,,,,0,31,31,19,,,,,,,,,,,,,,,,,,,,,,,,,,,,,,,,,,,,,,,,,,,,,503.7021403000108,1.0146111999638379,504.71119900001213,504.79453420004575,505.5943019000115,505.6944830000284,505.6944830000284,505.6944830000284,up,1,1.1847924999892712,,,,,,,,,,,,,,,,,,,,,,,,,,,,,,,,,,,,,007,001,2023-11-19_13h15.05.447,ETproject_Chi_2023.1.1,2023.1.1,59.98098601532278,
126,Week,星期四,星期二,,Hori,early,right,image/Chi_early.png,"[-0.4, 0]","[0.4, 0]",2,incongruent,,,,,,,,,,,,,,,,,,,,,,0,32,32,24,,,,,,,,,,,,,,,,,,,,,,,,,,,,,,,,,,,,,,,,,,,,,506.92372120002983,1.011560900020413,507.9266726000351,508.0101948000374,508.8098791000084,508.9101017000503,508.9101017000503,508.9101017000503,right,1,0.9849501000135206,,,,,,,,,,,,,,,,,,,,,,,,,,,,,,,,,,,,,007,001,2023-11-19_13h15.05.447,ETproject_Chi_2023.1.1,2023.1.1,59.98098601532278,
10,Month,二月,六月,,Hori,late,right,image/Chi_late.png,"[-0.4, 0]","[0.4, 0]",4,congruent,,,,,,,,,,,,,,,,,,,,,,0,33,33,37,,,,,,,,,,,,,,,,,,,,,,,,,,,,,,,,,,,,,,,,,,,,,509.93908640003065,1.0112386000109836,510.9425785000203,511.02588860003743,511.82543050003005,511.92540230002487,511.92540230002487,511.92540230002487,right,1,0.7855963999754749,,,,,,,,,,,,,,,,,,,,,,,,,,,,,,,,,,,,,007,001,2023-11-19_13h15.05.447,ETproject_Chi_2023.1.1,2023.1.1,59.98098601532278,
82,Month,六月,五月,,Vert,late,up,image/Chi_late.png,"[0, 0.4]","[0, -0.4]",1,incongruent,,,,,,,,,,,,,,,,,,,,,,0,34,34,33,,,,,,,,,,,,,,,,,,,,,,,,,,,,,,,,,,,,,,,,,,,,,512.7523807000252,1.0110621000058018,513.758191800036,513.8415609000367,514.6412803000421,514.7413904000423,514.7413904000423,514.7413904000423,up,1,1.1310033000190742,,,,,,,,,,,,,,,,,,,,,,,,,,,,,,,,,,,,,007,001,2023-11-19_13h15.05.447,ETproject_Chi_2023.1.1,2023.1.1,59.98098601532278,
29,Month,五月,九月 ,,Vert,late,down,image/Chi_late.png,"[0, 0.4]","[0, -0.4]",4,congruent,,,,,,,,,,,,,,,,,,,,,,0,35,35,21,,,,,,,,,,,,,,,,,,,,,,,,,,,,,,,,,,,,,,,,,,,,,515.9017902000342,1.00993430003291,516.9073337000445,516.990467399999,517.7901488000061,517.8902015000349,517.8902015000349,517.8902015000349,down,1,0.9580518999719061,,,,,,,,,,,,,,,,,,,,,,,,,,,,,,,,,,,,,007,001,2023-11-19_13h15.05.447,ETproject_Chi_2023.1.1,2023.1.1,59.98098601532278,
141,Week,星期六,星期三 ,,Vert,early,down,image/Chi_early.png,"[0, 0.4]","[0, -0.4]",3,incongruent,,,,,,,,,,,,,,,,,,,,,,0,36,36,29,,,,,,,,,,,,,,,,,,,,,,,,,,,,,,,,,,,,,,,,,,,,,519.8818180000526,1.0145829999819398,520.8891540000332,520.9725019000471,521.7720614999998,521.8722926000482,521.8722926000482,521.8722926000482,down,1,1.0238749000127427,,,,,,,,,,,,,,,,,,,,,,,,,,,,,,,,,,,,,007,001,2023-11-19_13h15.05.447,ETproject_Chi_2023.1.1,2023.1.1,59.98098601532278,
48,Month,十月 ,八月,,Hori,early,right,image/Chi_early.png,"[-0.4, 0]","[0.4, 0]",2,incongruent,,,,,,,,,,,,,,,,,,,,,,0,37,37,32,,,,,,,,,,,,,,,,,,,,,,,,,,,,,,,,,,,,,,,,,,,,,522.9325712000136,1.0121318000019528,523.938266400015,524.0215975000174,524.8213109000353,524.9212162000476,524.9212162000476,524.9212162000476,right,1,0.8467975000385195,,,,,,,,,,,,,,,,,,,,,,,,,,,,,,,,,,,,,007,001,2023-11-19_13h15.05.447,ETproject_Chi_2023.1.1,2023.1.1,59.98098601532278,
68,Month,十月 ,八月,,Vert,early,down,image/Chi_early.png,"[0, 0.4]","[0, -0.4]",2,incongruent,,,,,,,,,,,,,,,,,,,,,,0,38,38,48,,,,,,,,,,,,,,,,,,,,,,,,,,,,,,,,,,,,,,,,,,,,,525.7945726000471,1.0117861999897286,526.8039263000246,526.8873340000282,527.6870598000241,527.7870510000503,527.7870510000503,527.7870510000503,down,1,0.9319450000184588,,,,,,,,,,,,,,,,,,,,,,,,,,,,,,,,,,,,,007,001,2023-11-19_13h15.05.447,ETproject_Chi_2023.1.1,2023.1.1,59.98098601532278,
99,Week,星期三 ,星期五,,Hori,early,left,image/Chi_early.png,"[-0.4, 0]","[0.4, 0]",2,congruent,,,,,,,,,,,,,,,,,,,,,,0,39,39,3,,,,,,,,,,,,,,,,,,,,,,,,,,,,,,,,,,,,,,,,,,,,,528.756918900006,1.0117619999800809,529.7695989000495,529.8362780000316,530.6358986000414,530.7359774000361,530.7359774000361,530.7359774000361,left,1,0.8153372999513522,,,,,,,,,,,,,,,,,,,,,,,,,,,,,,,,,,,,,007,001,2023-11-19_13h15.05.447,ETproject_Chi_2023.1.1,2023.1.1,59.98098601532278,
123,Week,星期六,星期日,,Vert,late,down,image/Chi_late.png,"[0, 0.4]","[0, -0.4]",1,congruent,,,,,,,,,,,,,,,,,,,,,,0,40,40,31,,,,,,,,,,,,,,,,,,,,,,,,,,,,,,,,,,,,,,,,,,,,,531.5852196000051,1.0118462000391446,532.585275200021,532.6688753000344,533.4683999000117,533.5685208000359,533.5685208000359,533.5685208000359,down,1,1.0560600000317208,,,,,,,,,,,,,,,,,,,,,,,,,,,,,,,,,,,,,007,001,2023-11-19_13h15.05.447,ETproject_Chi_2023.1.1,2023.1.1,59.98098601532278,
23,Month,一月,二月 ,,Vert,early,up,image/Chi_early.png,"[0, 0.4]","[0, -0.4]",1,congruent,,,,,,,,,,,,,,,,,,,,,,0,41,41,30,,,,,,,,,,,,,,,,,,,,,,,,,,,,,,,,,,,,,,,,,,,,,534.6647600000142,0.9991194999893196,535.6676667000283,535.751249700028,536.5506250000326,536.6507774000056,536.6507774000056,536.6507774000056,up,1,0.8136392000014894,,,,,,,,,,,,,,,,,,,,,,,,,,,,,,,,,,,,,007,001,2023-11-19_13h15.05.447,ETproject_Chi_2023.1.1,2023.1.1,59.98098601532278,
111,Week,星期一,星期三 ,,Vert,early,up,image/Chi_early.png,"[0, 0.4]","[0, -0.4]",2,congruent,,,,,,,,,,,,,,,,,,,,,,0,42,42,8,,,,,,,,,,,,,,,,,,,,,,,,,,,,,,,,,,,,,,,,,,,,,537.4896300000255,1.0153548000380397,538.5000657000346,538.5832454000483,539.3832529000356,539.4832895,539.4832895,539.4832895,up,1,0.7964244000031613,,,,,,,,,,,,,,,,,,,,,,,,,,,,,,,,,,,,,007,001,2023-11-19_13h15.05.447,ETproject_Chi_2023.1.1,2023.1.1,59.98098601532278,
43,Month,十月 ,七月,,Hori,early,right,image/Chi_early.png,"[-0.4, 0]","[0.4, 0]",3,incongruent,,,,,,,,,,,,,,,,,,,,,,0,43,43,7,,,,,,,,,,,,,,,,,,,,,,,,,,,,,,,,,,,,,,,,,,,,,540.3058694000356,1.0132879000157118,541.3158089000499,541.3991017000517,542.1988090000232,542.298816399998,542.298816399998,542.298816399998,right,1,0.8527302999864332,,,,,,,,,,,,,,,,,,,,,,,,,,,,,,,,,,,,,007,001,2023-11-19_13h15.05.447,ETproject_Chi_2023.1.1,2023.1.1,59.98098601532278,
26,Month,八月,十一月 ,,Vert,early,up,image/Chi_early.png,"[0, 0.4]","[0, -0.4]",3,congruent,,,,,,,,,,,,,,,,,,,,,,0,44,44,44,,,,,,,,,,,,,,,,,,,,,,,,,,,,,,,,,,,,,,,,,,,,,543.1916851000278,1.0106556999962777,544.1981457000365,544.2817119000247,545.0811959000421,545.1812401000061,545.1812401000061,545.1812401000061,up,1,0.8180730000021867,,,,,,,,,,,,,,,,,,,,,,,,,,,,,,,,,,,,,007,001,2023-11-19_13h15.05.447,ETproject_Chi_2023.1.1,2023.1.1,59.98098601532278,
4,Month,四月,六月,,Hori,early,left,image/Chi_early.png,"[-0.4, 0]","[0.4, 0]",2,congruent,,,,,,,,,,,,,,,,,,,,,,0,45,45,20,,,,,,,,,,,,,,,,,,,,,,,,,,,,,,,,,,,,,,,,,,,,,546.0391817000345,1.012138899997808,547.0473991000326,547.1306292000227,547.9302096000174,548.0303666000254,548.0303666000254,548.0303666000254,left,1,0.7773053999990225,,,,,,,,,,,,,,,,,,,,,,,,,,,,,,,,,,,,,007,001,2023-11-19_13h15.05.447,ETproject_Chi_2023.1.1,2023.1.1,59.98098601532278,
21,Month,五月,九月 ,,Vert,early,up,image/Chi_early.png,"[0, 0.4]","[0, -0.4]",4,congruent,,,,,,,,,,,,,,,,,,,,,,0,46,46,46,,,,,,,,,,,,,,,,,,,,,,,,,,,,,,,,,,,,,,,,,,,,,548.8334011000115,0.9992017000331543,549.8462606000248,549.929835900024,550.7293421000359,550.8294159000507,550.8294159000507,550.8294159000507,up,1,0.7536399000091478,,,,,,,,,,,,,,,,,,,,,,,,,,,,,,,,,,,,,007,001,2023-11-19_13h15.05.447,ETproject_Chi_2023.1.1,2023.1.1,59.98098601532278,
108,Week,星期五,星期六,,Hori,late,right,image/Chi_late.png,"[-0.4, 0]","[0.4, 0]",1,congruent,,,,,,,,,,,,,,,,,,,,,,0,47,47,1,,,,,,,,,,,,,,,,,,,,,,,,,,,,,,,,,,,,,,,,,,,,,551.626664600044,1.013876499957405,552.6287750000483,552.7121430000407,553.5118817000184,553.6119619000237,553.6119619000237,553.6119619000237,left,0,0.987898999999743,,,,,,,,,,,,,,,,,,,,,,,,,,,,,,,,,,,,,007,001,2023-11-19_13h15.05.447,ETproject_Chi_2023.1.1,2023.1.1,59.98098601532278,
59,Month,五月,四月,,Hori,late,left,image/Chi_late.png,"[-0.4, 0]","[0.4, 0]",1,incongruent,,,,,,,,,,,,,,,,,,,,,,0,48,48,12,,,,,,,,,,,,,,,,,,,,,,,,,,,,,,,,,,,,,,,,,,,,,554.6342136000167,1.0135656999773346,555.6443743000273,555.7277016000007,556.5275371000171,556.6272363000317,556.6272363000317,556.6272363000317,left,1,1.0364539000438526,,,,,,,,,,,,,,,,,,,,,,,,,,,,,,,,,,,,,007,001,2023-11-19_13h15.05.447,ETproject_Chi_2023.1.1,2023.1.1,59.98098601532278,
98,Week,星期二,星期五,,Hori,early,left,image/Chi_early.png,"[-0.4, 0]","[0.4, 0]",3,congruent,,,,,,,,,,,,,,,,,,,,,,0,49,49,39,,,,,,,,,,,,,,,,,,,,,,,,,,,,,,,,,,,,,,,,,,,,,557.7088746000081,1.012852700019721,558.7101389000309,558.7932560000336,559.5930940000108,559.6933643000084,559.6933643000084,559.6933643000084,left,1,1.2590422999928705,,,,,,,,,,,,,,,,,,,,,,,,,,,,,,,,,,,,,007,001,2023-11-19_13h15.05.447,ETproject_Chi_2023.1.1,2023.1.1,59.98098601532278,
,,,,,,,,,,,,,,,,,,,,,,,,,,,,,,,,,,,,,,,,,,,,,,,,,,,,,,,,,,,,,,,,,,,,,,,,,,,,,,,,,,,,,,,,,,,,,,,,,,,,,,,,,,,,,,,560.9762885000091,560.9762885000091,space,2.743927299976349,,,,,,,,,,,,,,,007,001,2023-11-19_13h15.05.447,ETproject_Chi_2023.1.1,2023.1.1,59.98098601532278,
,,,,,,,,,,,,,Spring 2.jpg,这是冬天吗？,否,Right,Break_material/Image/Spring 2.jpg,,,,,,,,,,,,,,,,,,,,,0,0,0,1,,,,,,,,,,,,,,,,,,,,,,,,,,,,,,,,,,,,,,,,,,,,,,,,,,,,,,,,563.812975000008,567.7269543000148,567.8239386000205,569.7396915000281,569.7396915000281,569.7396915000281,569.7396915000281,right,0,0.6046018999768421,,,,,,,,,,,,,,,,,,,,,,,007,001,2023-11-19_13h15.05.447,ETproject_Chi_2023.1.1,2023.1.1,59.98098601532278,
,,,,,,,,,,,,,Spring 4.jpg,这是秋天吗？,否,Right,Break_material/Image/Spring 4.jpg,,,,,,,,,,,,,,,,,,,,,0,1,1,3,,,,,,,,,,,,,,,,,,,,,,,,,,,,,,,,,,,,,,,,,,,,,,,,,,,,,,,,570.6118309000158,574.3588174000033,574.6214490000275,576.3708772000391,576.3708772000391,576.3708772000391,576.3708772000391,right,0,0.5402241999981925,,,,,,,,,,,,,,,,,,,,,,,007,001,2023-11-19_13h15.05.447,ETproject_Chi_2023.1.1,2023.1.1,59.98098601532278,
,,,,,,,,,,,,,Spring 5.jpg,这是冬天吗？,否,Right,Break_material/Image/Spring 5.jpg,,,,,,,,,,,,,,,,,,,,,0,2,2,4,,,,,,,,,,,,,,,,,,,,,,,,,,,,,,,,,,,,,,,,,,,,,,,,,,,,,,,,577.4126586000202,580.9239927000017,581.4193237000145,582.9353635000298,582.9353635000298,582.9353635000298,582.9353635000298,right,0,0.40880590002052486,,,,,,,,,,,,,,,,,,,,,,,007,001,2023-11-19_13h15.05.447,ETproject_Chi_2023.1.1,2023.1.1,59.98098601532278,
,,,,,,,,,,,,,Spring 1.jpg,这是春天吗？,是,Left,Break_material/Image/Spring 1.jpg,,,,,,,,,,,,,,,,,,,,,0,3,3,0,,,,,,,,,,,,,,,,,,,,,,,,,,,,,,,,,,,,,,,,,,,,,,,,,,,,,,,,583.5947814000538,587.3536750000203,587.6003097000066,589.3662167000002,589.3662167000002,589.3662167000002,589.3662167000002,left,0,0.48103020002599806,,,,,,,,,,,,,,,,,,,,,,,007,001,2023-11-19_13h15.05.447,ETproject_Chi_2023.1.1,2023.1.1,59.98098601532278,
,,,,,,,,,,,,,Spring 3.jpg,这是夏天吗？,否,Right,Break_material/Image/Spring 3.jpg,,,,,,,,,,,,,,,,,,,,,0,4,4,2,,,,,,,,,,,,,,,,,,,,,,,,,,,,,,,,,,,,,,,,,,,,,,,,,,,,,,,,589.9261440000264,593.8519147000043,593.9316848000162,595.8642175000277,595.8642175000277,595.8642175000277,595.8642175000277,left,0,0.495770099980291,,,,,,,,,,,,,,,,,,,,,,,007,001,2023-11-19_13h15.05.447,ETproject_Chi_2023.1.1,2023.1.1,59.98098601532278,
,,,,,,,,,,,,,,,,,,,,,,,,,,,,,,,,,,,,,,,,,,,,,,,,,,,,,,,,,,,,,,,,,,,,,,,,,,,,,,,,,,,,,,,,,,,,,,,,,,,,,,,,,,,,,,,,,,,596.3810599000426,596.3810599000426,space,1.9464403000310995,,,,,,,,,,,007,001,2023-11-19_13h15.05.447,ETproject_Chi_2023.1.1,2023.1.1,59.98098601532278,
52,Month,十月 ,七月,,Hori,late,left,image/Chi_late.png,"[-0.4, 0]","[0.4, 0]",3,incongruent,,,,,,,,,,,,,,,,,,,,,,,,,,,,,,0,0,0,41,,,,,,,,,,,,,,,,,,,,,,,,,,,,,,,,,,,,,598.3636781000532,0.999172699986957,599.3632227000198,599.4464414000395,600.2460586000234,600.3461237000301,600.3461237000301,600.3461237000301,left,1,0.8849652000353672,,,,,,,,,,,,,,,,,,,,,,,,,,,,,,,,,,,,,007,001,2023-11-19_13h15.05.447,ETproject_Chi_2023.1.1,2023.1.1,59.98098601532278,
51,Month,七月,三月,,Vert,early,down,image/Chi_early.png,"[0, 0.4]","[0, -0.4]",4,incongruent,,,,,,,,,,,,,,,,,,,,,,,,,,,,,,0,1,1,12,,,,,,,,,,,,,,,,,,,,,,,,,,,,,,,,,,,,,601.2691952000023,1.0156695999903604,602.2787403000402,602.362099400023,603.1619037000346,603.2619350000168,603.2619350000168,603.2619350000168,down,1,0.929564299993217,,,,,,,,,,,,,,,,,,,,,,,,,,,,,,,,,,,,,007,001,2023-11-19_13h15.05.447,ETproject_Chi_2023.1.1,2023.1.1,59.98098601532278,
107,Week,星期四,星期五,,Hori,late,right,image/Chi_late.png,"[-0.4, 0]","[0.4, 0]",1,congruent,,,,,,,,,,,,,,,,,,,,,,,,,,,,,,0,2,2,19,,,,,,,,,,,,,,,,,,,,,,,,,,,,,,,,,,,,,604.2250229000347,1.015291400020942,605.2278653000249,605.3112702000071,606.110922300024,606.2108512000414,606.2108512000414,606.2108512000414,right,1,0.9566227000323124,,,,,,,,,,,,,,,,,,,,,,,,,,,,,,,,,,,,,007,001,2023-11-19_13h15.05.447,ETproject_Chi_2023.1.1,2023.1.1,59.98098601532278,
127,Week,星期四,星期三 ,,Hori,early,right,image/Chi_early.png,"[-0.4, 0]","[0.4, 0]",1,incongruent,,,,,,,,,,,,,,,,,,,,,,,,,,,,,,0,3,3,48,,,,,,,,,,,,,,,,,,,,,,,,,,,,,,,,,,,,,607.200678000052,1.014505300030578,608.2102974000154,608.2935600000201,609.0932635000208,609.1933604000369,609.1933604000369,609.1933604000369,right,1,1.7826025999966078,,,,,,,,,,,,,,,,,,,,,,,,,,,,,,,,,,,,,007,001,2023-11-19_13h15.05.447,ETproject_Chi_2023.1.1,2023.1.1,59.98098601532278,
69,Month,十一月 ,九月 ,,Vert,early,down,image/Chi_early.png,"[0, 0.4]","[0, -0.4]",2,incongruent,,,,,,,,,,,,,,,,,,,,,,,,,,,,,,0,4,4,32,,,,,,,,,,,,,,,,,,,,,,,,,,,,,,,,,,,,,611.0007757000276,1.0119599999743514,612.00886240002,612.0923733000527,612.8920007999986,612.9919494000496,612.9919494000496,612.9919494000496,down,1,1.1434762999997474,,,,,,,,,,,,,,,,,,,,,,,,,,,,,,,,,,,,,007,001,2023-11-19_13h15.05.447,ETproject_Chi_2023.1.1,2023.1.1,59.98098601532278,
43,Month,五月,三月,,Hori,early,right,image/Chi_early.png,"[-0.4, 0]","[0.4, 0]",2,incongruent,,,,,,,,,,,,,,,,,,,,,,,,,,,,,,0,5,5,16,,,,,,,,,,,,,,,,,,,,,,,,,,,,,,,,,,,,,614.1665211000363,1.0110814999789,615.1745061000111,615.257926899998,616.0578905000002,616.1574847000302,616.1574847000302,616.1574847000302,right,1,0.890100899967365,,,,,,,,,,,,,,,,,,,,,,,,,,,,,,,,,,,,,007,001,2023-11-19_13h15.05.447,ETproject_Chi_2023.1.1,2023.1.1,59.98098601532278,
128,Week,星期日,星期四,,Hori,early,right,image/Chi_early.png,"[-0.4, 0]","[0.4, 0]",3,incongruent,,,,,,,,,,,,,,,,,,,,,,,,,,,,,,0,6,6,35,,,,,,,,,,,,,,,,,,,,,,,,,,,,,,,,,,,,,617.0776963000535,0.9992209999472834,618.0903273000149,618.1737017999985,618.9733476000256,619.0734513000352,619.0734513000352,619.0734513000352,right,1,0.9504073999705724,,,,,,,,,,,,,,,,,,,,,,,,,,,,,,,,,,,,,007,001,2023-11-19_13h15.05.447,ETproject_Chi_2023.1.1,2023.1.1,59.98098601532278,
68,Month,三月,二月,,Vert,early,down,image/Chi_early.png,"[0, 0.4]","[0, -0.4]",1,incongruent,,,,,,,,,,,,,,,,,,,,,,,,,,,,,,0,7,7,46,,,,,,,,,,,,,,,,,,,,,,,,,,,,,,,,,,,,,620.0611481000087,0.9990010999608785,621.0726114000427,621.1558934000204,621.9556778999977,622.0556787000387,622.0556787000387,622.0556787000387,up,0,0.8960803999798372,,,,,,,,,,,,,,,,,,,,,,,,,,,,,,,,,,,,,007,001,2023-11-19_13h15.05.447,ETproject_Chi_2023.1.1,2023.1.1,59.98098601532278,
30,Month,三月,六月,,Vert,late,down,image/Chi_late.png,"[0, 0.4]","[0, -0.4]",3,congruent,,,,,,,,,,,,,,,,,,,,,,,,,,,,,,0,8,8,14,,,,,,,,,,,,,,,,,,,,,,,,,,,,,,,,,,,,,622.9884632000467,1.0106622999883257,623.9882548000314,624.0717409000499,624.8715917000081,624.971235200006,624.971235200006,624.971235200006,down,1,1.2037236000178382,,,,,,,,,,,,,,,,,,,,,,,,,,,,,,,,,,,,,007,001,2023-11-19_13h15.05.447,ETproject_Chi_2023.1.1,2023.1.1,59.98098601532278,
55,Month,七月,五月,,Hori,late,left,image/Chi_late.png,"[-0.4, 0]","[0.4, 0]",2,incongruent,,,,,,,,,,,,,,,,,,,,,,,,,,,,,,0,9,9,11,,,,,,,,,,,,,,,,,,,,,,,,,,,,,,,,,,,,,626.2104936000542,1.0135843000025488,627.2204697999987,627.30383790005,628.1036948999972,628.2036392000155,628.2036392000155,628.2036392000155,left,1,0.8605711999698542,,,,,,,,,,,,,,,,,,,,,,,,,,,,,,,,,,,,,007,001,2023-11-19_13h15.05.447,ETproject_Chi_2023.1.1,2023.1.1,59.98098601532278,
143,Week,星期日,星期五,,Vert,early,down,image/Chi_early.png,"[0, 0.4]","[0, -0.4]",2,incongruent,,,,,,,,,,,,,,,,,,,,,,,,,,,,,,0,10,10,22,,,,,,,,,,,,,,,,,,,,,,,,,,,,,,,,,,,,,629.0997761000181,1.0120910999830812,630.102825000009,630.1863773000077,630.9859346000012,631.0861351000494,631.0861351000494,631.0861351000494,down,1,1.0260117000434548,,,,,,,,,,,,,,,,,,,,,,,,,,,,,,,,,,,,,007,001,2023-11-19_13h15.05.447,ETproject_Chi_2023.1.1,2023.1.1,59.98098601532278,
58,Month,十月 ,八月,,Hori,late,left,image/Chi_late.png,"[-0.4, 0]","[0.4, 0]",2,incongruent,,,,,,,,,,,,,,,,,,,,,,,,,,,,,,0,11,11,26,,,,,,,,,,,,,,,,,,,,,,,,,,,,,,,,,,,,,632.14657120005,1.0119804999558255,633.1519094000105,633.235247900011,634.0350655000075,634.134960000054,634.134960000054,634.134960000054,left,1,0.8168977000168525,,,,,,,,,,,,,,,,,,,,,,,,,,,,,,,,,,,,,007,001,2023-11-19_13h15.05.447,ETproject_Chi_2023.1.1,2023.1.1,59.98098601532278,
47,Month,九月 ,七月,,Hori,early,right,image/Chi_early.png,"[-0.4, 0]","[0.4, 0]",2,incongruent,,,,,,,,,,,,,,,,,,,,,,,,,,,,,,0,12,12,23,,,,,,,,,,,,,,,,,,,,,,,,,,,,,,,,,,,,,635.0008840000373,1.0131373000331223,636.000986900006,636.0843599000364,636.8842108000536,636.9840877000242,636.9840877000242,636.9840877000242,right,1,1.3598728000069968,,,,,,,,,,,,,,,,,,,,,,,,,,,,,,,,,,,,,007,001,2023-11-19_13h15.05.447,ETproject_Chi_2023.1.1,2023.1.1,59.98098601532278,
47,Month,十一月 ,七月,,Hori,late,left,image/Chi_late.png,"[-0.4, 0]","[0.4, 0]",4,incongruent,,,,,,,,,,,,,,,,,,,,,,,,,,,,,,0,13,13,37,,,,,,,,,,,,,,,,,,,,,,,,,,,,,,,,,,,,,638.3768787000445,1.0121791000128724,639.3831527000293,639.4666715000058,640.266326800047,640.3662545999978,640.3662545999978,640.3662545999978,left,1,0.9379264999879524,,,,,,,,,,,,,,,,,,,,,,,,,,,,,,,,,,,,,007,001,2023-11-19_13h15.05.447,ETproject_Chi_2023.1.1,2023.1.1,59.98098601532278,
3,Month,三月,五月,,Hori,early,left,image/Chi_early.png,"[-0.4, 0]","[0.4, 0]",2,congruent,,,,,,,,,,,,,,,,,,,,,,,,,,,,,,0,14,14,29,,,,,,,,,,,,,,,,,,,,,,,,,,,,,,,,,,,,,641.3450301000266,1.0103620000299998,642.348950900021,642.4323716000072,643.2319661000511,643.3319929999998,643.3319929999998,643.3319929999998,left,1,0.843940399994608,,,,,,,,,,,,,,,,,,,,,,,,,,,,,,,,,,,,,007,001,2023-11-19_13h15.05.447,ETproject_Chi_2023.1.1,2023.1.1,59.98098601532278,
76,Month,十一月 ,十月 ,,Vert,early,down,image/Chi_early.png,"[0, 0.4]","[0, -0.4]",1,incongruent,,,,,,,,,,,,,,,,,,,,,,,,,,,,,,0,15,15,1,,,,,,,,,,,,,,,,,,,,,,,,,,,,,,,,,,,,,644.2029800000018,0.9991769000189379,645.2146349000395,645.2980785000254,646.0978059000336,646.1976885000477,646.1976885000477,646.1976885000477,down,1,1.1782449000165798,,,,,,,,,,,,,,,,,,,,,,,,,,,,,,,,,,,,,007,001,2023-11-19_13h15.05.447,ETproject_Chi_2023.1.1,2023.1.1,59.98098601532278,
36,Month,八月,四月,,Hori,early,right,image/Chi_early.png,"[-0.4, 0]","[0.4, 0]",4,incongruent,,,,,,,,,,,,,,,,,,,,,,,,,,,,,,0,16,16,27,,,,,,,,,,,,,,,,,,,,,,,,,,,,,,,,,,,,,647.406054000021,1.0104391000350006,648.4138287000242,648.497040300048,649.2966557000182,649.3966893000179,649.3966893000179,649.3966893000179,right,1,0.9634953999775462,,,,,,,,,,,,,,,,,,,,,,,,,,,,,,,,,,,,,007,001,2023-11-19_13h15.05.447,ETproject_Chi_2023.1.1,2023.1.1,59.98098601532278,
31,Month,七月,十一月 ,,Vert,late,down,image/Chi_late.png,"[0, 0.4]","[0, -0.4]",4,congruent,,,,,,,,,,,,,,,,,,,,,,,,,,,,,,0,17,17,6,,,,,,,,,,,,,,,,,,,,,,,,,,,,,,,,,,,,,650.393012400018,0.9991930999676697,651.3958920000005,651.4792568000266,652.2790043000132,652.3790498000453,652.3790498000453,652.3790498000453,down,1,1.0047343000187539,,,,,,,,,,,,,,,,,,,,,,,,,,,,,,,,,,,,,007,001,2023-11-19_13h15.05.447,ETproject_Chi_2023.1.1,2023.1.1,59.98098601532278,
9,Month,九月 ,十月 ,,Hori,early,left,image/Chi_early.png,"[-0.4, 0]","[0.4, 0]",1,congruent,,,,,,,,,,,,,,,,,,,,,,,,,,,,,,0,18,18,47,,,,,,,,,,,,,,,,,,,,,,,,,,,,,,,,,,,,,653.4211082000402,0.9992217000108212,654.4282925000298,654.5116621000343,655.3113323000143,655.411471600004,655.411471600004,655.411471600004,left,1,0.6530596000375226,,,,,,,,,,,,,,,,,,,,,,,,,,,,,,,,,,,,,007,001,2023-11-19_13h15.05.447,ETproject_Chi_2023.1.1,2023.1.1,59.98098601532278,
52,Month,八月,四月,,Vert,early,down,image/Chi_early.png,"[0, 0.4]","[0, -0.4]",4,incongruent,,,,,,,,,,,,,,,,,,,,,,,,,,,,,,0,19,19,31,,,,,,,,,,,,,,,,,,,,,,,,,,,,,,,,,,,,,656.1028647000203,1.0109151999931782,657.1107694000239,657.1939852000214,657.9940173000214,658.0937667000107,658.0937667000107,658.0937667000107,down,1,0.8013706000056118,,,,,,,,,,,,,,,,,,,,,,,,,,,,,,,,,,,,,007,001,2023-11-19_13h15.05.447,ETproject_Chi_2023.1.1,2023.1.1,59.98098601532278,
38,Month,十月 ,六月,,Hori,early,right,image/Chi_early.png,"[-0.4, 0]","[0.4, 0]",4,incongruent,,,,,,,,,,,,,,,,,,,,,,,,,,,,,,0,20,20,18,,,,,,,,,,,,,,,,,,,,,,,,,,,,,,,,,,,,,658.93455060001,1.011706100020092,659.9430775000365,660.0266090000514,660.8261693000095,660.926171900006,660.926171900006,660.926171900006,right,1,1.0183878000243567,,,,,,,,,,,,,,,,,,,,,,,,,,,,,,,,,,,,,007,001,2023-11-19_13h15.05.447,ETproject_Chi_2023.1.1,2023.1.1,59.98098601532278,
64,Month,四月,一月,,Vert,late,up,image/Chi_late.png,"[0, 0.4]","[0, -0.4]",3,incongruent,,,,,,,,,,,,,,,,,,,,,,,,,,,,,,0,21,21,24,,,,,,,,,,,,,,,,,,,,,,,,,,,,,,,,,,,,,661.989426300046,1.0104131000116467,662.9920597000164,663.0754621000378,663.8753548000241,663.9752552999998,663.9752552999998,663.9752552999998,up,1,1.1448677000007592,,,,,,,,,,,,,,,,,,,,,,,,,,,,,,,,,,,,,007,001,2023-11-19_13h15.05.447,ETproject_Chi_2023.1.1,2023.1.1,59.98098601532278,
43,Month,七月,三月,,Hori,late,left,image/Chi_late.png,"[-0.4, 0]","[0.4, 0]",4,incongruent,,,,,,,,,,,,,,,,,,,,,,,,,,,,,,0,22,22,39,,,,,,,,,,,,,,,,,,,,,,,,,,,,,,,,,,,,,665.1522580000455,1.0107058999710716,666.1577786999987,666.2410580000142,667.0409432000015,667.1407627000008,667.1407627000008,667.1407627000008,left,1,0.9146531000151299,,,,,,,,,,,,,,,,,,,,,,,,,,,,,,,,,,,,,007,001,2023-11-19_13h15.05.447,ETproject_Chi_2023.1.1,2023.1.1,59.98098601532278,
12,Month,二月,四月,,Hori,late,right,image/Chi_late.png,"[-0.4, 0]","[0.4, 0]",2,congruent,,,,,,,,,,,,,,,,,,,,,,,,,,,,,,0,23,23,21,,,,,,,,,,,,,,,,,,,,,,,,,,,,,,,,,,,,,668.081944900041,1.01196939998772,669.0903516000253,669.1736404999974,669.9732130000484,670.0731737000169,670.0731737000169,670.0731737000169,right,1,0.8223048999789171,,,,,,,,,,,,,,,,,,,,,,,,,,,,,,,,,,,,,007,001,2023-11-19_13h15.05.447,ETproject_Chi_2023.1.1,2023.1.1,59.98098601532278,
105,Week,星期二,星期五,,Hori,late,right,image/Chi_late.png,"[-0.4, 0]","[0.4, 0]",3,congruent,,,,,,,,,,,,,,,,,,,,,,,,,,,,,,0,24,24,42,,,,,,,,,,,,,,,,,,,,,,,,,,,,,,,,,,,,,670.9266546000144,1.0158368999836966,671.9391278999974,672.0226787000429,672.8221532000462,672.9223720000009,672.9223720000009,672.9223720000009,right,1,0.9817146999994293,,,,,,,,,,,,,,,,,,,,,,,,,,,,,,,,,,,,,007,001,2023-11-19_13h15.05.447,ETproject_Chi_2023.1.1,2023.1.1,59.98098601532278,
79,Month,十一月 ,九月 ,,Vert,late,up,image/Chi_late.png,"[0, 0.4]","[0, -0.4]",2,incongruent,,,,,,,,,,,,,,,,,,,,,,,,,,,,,,0,25,25,0,,,,,,,,,,,,,,,,,,,,,,,,,,,,,,,,,,,,,673.9276119000278,1.0152882999973372,674.9380680000177,675.0215424000053,675.8213266000384,675.9212100000004,675.9212100000004,675.9212100000004,up,1,1.0062271999777295,,,,,,,,,,,,,,,,,,,,,,,,,,,,,,,,,,,,,007,001,2023-11-19_13h15.05.447,ETproject_Chi_2023.1.1,2023.1.1,59.98098601532278,
32,Month,五月,八月,,Vert,late,down,image/Chi_late.png,"[0, 0.4]","[0, -0.4]",3,congruent,,,,,,,,,,,,,,,,,,,,,,,,,,,,,,0,26,26,9,,,,,,,,,,,,,,,,,,,,,,,,,,,,,,,,,,,,,676.9602747000172,1.0137052000500262,677.9705212000408,678.0538553000079,678.8536680000252,678.9534378000535,678.9534378000535,678.9534378000535,down,1,1.0860058999969624,,,,,,,,,,,,,,,,,,,,,,,,,,,,,,,,,,,,,007,001,2023-11-19_13h15.05.447,ETproject_Chi_2023.1.1,2023.1.1,59.98098601532278,
57,Month,五月,一月,,Vert,late,up,image/Chi_late.png,"[0, 0.4]","[0, -0.4]",4,incongruent,,,,,,,,,,,,,,,,,,,,,,,,,,,,,,0,27,27,25,,,,,,,,,,,,,,,,,,,,,,,,,,,,,,,,,,,,,680.0793640000047,1.0115812000003643,681.0861579000484,681.1695473000291,681.9692038000212,682.0691844000248,682.0691844000248,682.0691844000248,up,1,1.0187060000025667,,,,,,,,,,,,,,,,,,,,,,,,,,,,,,,,,,,,,007,001,2023-11-19_13h15.05.447,ETproject_Chi_2023.1.1,2023.1.1,59.98098601532278,
136,Week,星期六,星期五,,Hori,late,left,image/Chi_late.png,"[-0.4, 0]","[0.4, 0]",1,incongruent,,,,,,,,,,,,,,,,,,,,,,,,,,,,,,0,28,28,13,,,,,,,,,,,,,,,,,,,,,,,,,,,,,,,,,,,,,683.1264041000395,1.011992999992799,684.1353320000344,684.218554000021,685.0182356000296,685.1181315000285,685.1181315000285,685.1181315000285,left,1,0.8255343000055291,,,,,,,,,,,,,,,,,,,,,,,,,,,,,,,,,,,,,007,001,2023-11-19_13h15.05.447,ETproject_Chi_2023.1.1,2023.1.1,59.98098601532278,
32,Month,十月 ,十一月 ,,Vert,early,up,image/Chi_early.png,"[0, 0.4]","[0, -0.4]",1,congruent,,,,,,,,,,,,,,,,,,,,,,,,,,,,,,0,29,29,44,,,,,,,,,,,,,,,,,,,,,,,,,,,,,,,,,,,,,685.9847955000005,1.0096113999607041,686.9843196000438,687.0674758000532,687.8671974000172,687.9672083000187,687.9672083000187,687.9672083000187,up,1,1.3604872999712825,,,,,,,,,,,,,,,,,,,,,,,,,,,,,,,,,,,,,007,001,2023-11-19_13h15.05.447,ETproject_Chi_2023.1.1,2023.1.1,59.98098601532278,
122,Week,星期五,星期六,,Vert,late,down,image/Chi_late.png,"[0, 0.4]","[0, -0.4]",1,congruent,,,,,,,,,,,,,,,,,,,,,,,,,,,,,,0,30,30,38,,,,,,,,,,,,,,,,,,,,,,,,,,,,,,,,,,,,,689.3601882000221,1.011670000036247,690.3663514000364,690.44972220005,691.2494557000464,691.3494834000012,691.3494834000012,691.3494834000012,down,1,1.0180112000089139,,,,,,,,,,,,,,,,,,,,,,,,,,,,,,,,,,,,,007,001,2023-11-19_13h15.05.447,ETproject_Chi_2023.1.1,2023.1.1,59.98098601532278,
63,Month,十一月 ,七月,,Vert,late,up,image/Chi_late.png,"[0, 0.4]","[0, -0.4]",4,incongruent,,,,,,,,,,,,,,,,,,,,,,,,,,,,,,0,31,31,3,,,,,,,,,,,,,,,,,,,,,,,,,,,,,,,,,,,,,692.4080751000438,1.0107756999786943,693.4154193000286,693.4987548000063,694.2984386000317,694.3984320000163,694.3984320000163,694.3984320000163,up,1,0.8421344999806024,,,,,,,,,,,,,,,,,,,,,,,,,,,,,,,,,,,,,007,001,2023-11-19_13h15.05.447,ETproject_Chi_2023.1.1,2023.1.1,59.98098601532278,
15,Month,七月,十一月 ,,Hori,late,right,image/Chi_late.png,"[-0.4, 0]","[0.4, 0]",4,congruent,,,,,,,,,,,,,,,,,,,,,,,,,,,,,,0,32,32,15,,,,,,,,,,,,,,,,,,,,,,,,,,,,,,,,,,,,,695.2744509000331,1.0115134999505244,696.2813105000532,696.3645559000433,697.164300400007,697.2642007000395,697.2642007000395,697.2642007000395,right,1,0.759300300036557,,,,,,,,,,,,,,,,,,,,,,,,,,,,,,,,,,,,,007,001,2023-11-19_13h15.05.447,ETproject_Chi_2023.1.1,2023.1.1,59.98098601532278,
149,Week,星期五,星期四,,Vert,late,up,image/Chi_late.png,"[0, 0.4]","[0, -0.4]",1,incongruent,,,,,,,,,,,,,,,,,,,,,,,,,,,,,,0,33,33,8,,,,,,,,,,,,,,,,,,,,,,,,,,,,,,,,,,,,,698.0545403000433,1.0127049000002444,699.0635020000045,699.1469305000501,699.9466109000496,700.0465976000414,700.0465976000414,700.0465976000414,up,1,1.0659970000269823,,,,,,,,,,,,,,,,,,,,,,,,,,,,,,,,,,,,,007,001,2023-11-19_13h15.05.447,ETproject_Chi_2023.1.1,2023.1.1,59.98098601532278,
11,Month,一月,三月,,Hori,late,right,image/Chi_late.png,"[-0.4, 0]","[0.4, 0]",2,congruent,,,,,,,,,,,,,,,,,,,,,,,,,,,,,,0,34,34,5,,,,,,,,,,,,,,,,,,,,,,,,,,,,,,,,,,,,,701.1375838000095,1.0113307999563403,702.1460217999993,702.2292516000452,703.0288492000545,703.1289168000221,703.1289168000221,703.1289168000221,right,1,0.8945621000020765,,,,,,,,,,,,,,,,,,,,,,,,,,,,,,,,,,,,,007,001,2023-11-19_13h15.05.447,ETproject_Chi_2023.1.1,2023.1.1,59.98098601532278,
46,Month,三月,二月,,Hori,early,right,image/Chi_early.png,"[-0.4, 0]","[0.4, 0]",1,incongruent,,,,,,,,,,,,,,,,,,,,,,,,,,,,,,0,35,35,36,,,,,,,,,,,,,,,,,,,,,,,,,,,,,,,,,,,,,704.0537622999982,1.0154879000037909,705.0615726000397,705.144882200053,705.944694100006,706.0446011000313,706.0446011000313,706.0446011000313,right,1,0.9232198999961838,,,,,,,,,,,,,,,,,,,,,,,,,,,,,,,,,,,,,007,001,2023-11-19_13h15.05.447,ETproject_Chi_2023.1.1,2023.1.1,59.98098601532278,
133,Week,星期五,星期二,,Hori,late,left,image/Chi_late.png,"[-0.4, 0]","[0.4, 0]",3,incongruent,,,,,,,,,,,,,,,,,,,,,,,,,,,,,,0,36,36,49,,,,,,,,,,,,,,,,,,,,,,,,,,,,,,,,,,,,,707.0130793999997,1.0148356999852695,708.0272829000023,708.0939118000097,708.8937348000472,708.9938344000257,708.9938344000257,708.9938344000257,left,1,0.7253652999643236,,,,,,,,,,,,,,,,,,,,,,,,,,,,,,,,,,,,,007,001,2023-11-19_13h15.05.447,ETproject_Chi_2023.1.1,2023.1.1,59.98098601532278,
107,Week,星期四,星期日,,Hori,late,right,image/Chi_late.png,"[-0.4, 0]","[0.4, 0]",3,congruent,,,,,,,,,,,,,,,,,,,,,,,,,,,,,,0,37,37,34,,,,,,,,,,,,,,,,,,,,,,,,,,,,,,,,,,,,,709.7590966999996,1.0135208000428975,710.7597181000165,710.8431101000169,711.6429136000224,711.74292530003,711.74292530003,711.74292530003,right,1,1.0885156999574974,,,,,,,,,,,,,,,,,,,,,,,,,,,,,,,,,,,,,007,001,2023-11-19_13h15.05.447,ETproject_Chi_2023.1.1,2023.1.1,59.98098601532278,
119,Week,星期二,星期四,,Vert,late,down,image/Chi_late.png,"[0, 0.4]","[0, -0.4]",2,congruent,,,,,,,,,,,,,,,,,,,,,,,,,,,,,,0,38,38,45,,,,,,,,,,,,,,,,,,,,,,,,,,,,,,,,,,,,,712.8681660000002,1.0115700000314973,713.8754483000375,713.9587518000044,714.7583299000398,714.8584073000238,714.8584073000238,714.8584073000238,down,1,0.805261800007429,,,,,,,,,,,,,,,,,,,,,,,,,,,,,,,,,,,,,007,001,2023-11-19_13h15.05.447,ETproject_Chi_2023.1.1,2023.1.1,59.98098601532278,
47,Month,五月,二月,,Hori,late,left,image/Chi_late.png,"[-0.4, 0]","[0.4, 0]",3,incongruent,,,,,,,,,,,,,,,,,,,,,,,,,,,,,,0,39,39,10,,,,,,,,,,,,,,,,,,,,,,,,,,,,,,,,,,,,,715.7019986000378,1.0102689999621361,716.7077464000322,716.7911450000247,717.5908328000223,717.6908004000434,717.6908004000434,717.6908004000434,left,1,0.7564666999969631,,,,,,,,,,,,,,,,,,,,,,,,,,,,,,,,,,,,,007,001,2023-11-19_13h15.05.447,ETproject_Chi_2023.1.1,2023.1.1,59.98098601532278,
33,Month,十一月 ,十二月,,Vert,early,up,image/Chi_early.png,"[0, 0.4]","[0, -0.4]",1,congruent,,,,,,,,,,,,,,,,,,,,,,,,,,,,,,0,40,40,2,,,,,,,,,,,,,,,,,,,,,,,,,,,,,,,,,,,,,718.4820116000483,1.0153936000424437,719.4902413000236,719.5735547000077,720.3732032999978,720.4732767000096,720.4732767000096,720.4732767000096,up,1,1.198317300004419,,,,,,,,,,,,,,,,,,,,,,,,,,,,,,,,,,,,,007,001,2023-11-19_13h15.05.447,ETproject_Chi_2023.1.1,2023.1.1,59.98098601532278,
8,Month,八月,十二月,,Hori,early,left,image/Chi_early.png,"[-0.4, 0]","[0.4, 0]",4,congruent,,,,,,,,,,,,,,,,,,,,,,,,,,,,,,0,41,41,7,,,,,,,,,,,,,,,,,,,,,,,,,,,,,,,,,,,,,721.6974548000144,1.0104641999932937,722.7058417000226,722.7890489000129,723.5888742000097,723.6888277000398,723.6888277000398,723.6888277000398,left,1,1.1671116999932565,,,,,,,,,,,,,,,,,,,,,,,,,,,,,,,,,,,,,007,001,2023-11-19_13h15.05.447,ETproject_Chi_2023.1.1,2023.1.1,59.98098601532278,
106,Week,星期三 ,星期五,,Hori,late,right,image/Chi_late.png,"[-0.4, 0]","[0.4, 0]",2,congruent,,,,,,,,,,,,,,,,,,,,,,,,,,,,,,0,42,42,33,,,,,,,,,,,,,,,,,,,,,,,,,,,,,,,,,,,,,724.9048912000144,1.011426399985794,725.9047599000041,725.9880099000293,726.7877029000083,726.8877372000134,726.8877372000134,726.8877372000134,right,1,0.8562825999688357,,,,,,,,,,,,,,,,,,,,,,,,,,,,,,,,,,,,,007,001,2023-11-19_13h15.05.447,ETproject_Chi_2023.1.1,2023.1.1,59.98098601532278,
118,Week,星期一,星期三 ,,Vert,late,down,image/Chi_late.png,"[0, 0.4]","[0, -0.4]",2,congruent,,,,,,,,,,,,,,,,,,,,,,,,,,,,,,0,43,43,43,,,,,,,,,,,,,,,,,,,,,,,,,,,,,,,,,,,,,727.77873000002,1.0140288999537006,728.7870400000247,728.8706149000209,729.6701236000517,729.7702865000465,729.7702865000465,729.7702865000465,down,1,1.013747000019066,,,,,,,,,,,,,,,,,,,,,,,,,,,,,,,,,,,,,007,001,2023-11-19_13h15.05.447,ETproject_Chi_2023.1.1,2023.1.1,59.98098601532278,
38,Month,五月,六月,,Vert,late,down,image/Chi_late.png,"[0, 0.4]","[0, -0.4]",1,congruent,,,,,,,,,,,,,,,,,,,,,,,,,,,,,,0,44,44,20,,,,,,,,,,,,,,,,,,,,,,,,,,,,,,,,,,,,,730.809409700043,1.0135166999534704,731.8193923000363,731.9027720000013,732.702596200048,732.8027094000136,732.8027094000136,732.8027094000136,down,1,1.9410505999694578,,,,,,,,,,,,,,,,,,,,,,,,,,,,,,,,,,,,,007,001,2023-11-19_13h15.05.447,ETproject_Chi_2023.1.1,2023.1.1,59.98098601532278,
61,Month,七月,六月,,Hori,late,left,image/Chi_late.png,"[-0.4, 0]","[0.4, 0]",1,incongruent,,,,,,,,,,,,,,,,,,,,,,,,,,,,,,0,45,45,17,,,,,,,,,,,,,,,,,,,,,,,,,,,,,,,,,,,,,734.7735155000119,1.013567999994848,735.7849743000115,735.8680960000493,736.6678055000375,736.7678965000086,736.7678965000086,736.7678965000086,left,1,1.319276499969419,,,,,,,,,,,,,,,,,,,,,,,,,,,,,,,,,,,,,007,001,2023-11-19_13h15.05.447,ETproject_Chi_2023.1.1,2023.1.1,59.98098601532278,
42,Month,九月 ,六月,,Hori,early,right,image/Chi_early.png,"[-0.4, 0]","[0.4, 0]",3,incongruent,,,,,,,,,,,,,,,,,,,,,,,,,,,,,,0,46,46,4,,,,,,,,,,,,,,,,,,,,,,,,,,,,,,,,,,,,,739.12504980003,1.0150020999717526,740.1334835000453,740.2166920000454,741.0164603000158,741.1164497000282,741.1164497000282,741.1164497000282,right,1,1.787302999990061,,,,,,,,,,,,,,,,,,,,,,,,,,,,,,,,,,,,,007,001,2023-11-19_13h15.05.447,ETproject_Chi_2023.1.1,2023.1.1,59.98098601532278,
122,Week,星期五,星期日,,Vert,late,down,image/Chi_late.png,"[0, 0.4]","[0, -0.4]",2,congruent,,,,,,,,,,,,,,,,,,,,,,,,,,,,,,0,47,47,40,,,,,,,,,,,,,,,,,,,,,,,,,,,,,,,,,,,,,742.9438788000261,1.0118513999623246,743.948775900004,744.0321278000483,744.8318662000238,744.9319259000476,744.9319259000476,744.9319259000476,down,1,1.3640516000450589,,,,,,,,,,,,,,,,,,,,,,,,,,,,,,,,,,,,,007,001,2023-11-19_13h15.05.447,ETproject_Chi_2023.1.1,2023.1.1,59.98098601532278,
50,Month,六月,二月,,Vert,early,down,image/Chi_early.png,"[0, 0.4]","[0, -0.4]",4,incongruent,,,,,,,,,,,,,,,,,,,,,,,,,,,,,,0,48,48,30,,,,,,,,,,,,,,,,,,,,,,,,,,,,,,,,,,,,,746.3282426000223,1.0110988999949768,747.3311732000438,747.4143433000427,748.2142299000407,748.3142772000283,748.3142772000283,748.3142772000283,down,1,1.38094220001949,,,,,,,,,,,,,,,,,,,,,,,,,,,,,,,,,,,,,007,001,2023-11-19_13h15.05.447,ETproject_Chi_2023.1.1,2023.1.1,59.98098601532278,
50,Month,七月,六月,,Hori,early,right,image/Chi_early.png,"[-0.4, 0]","[0.4, 0]",1,incongruent,,,,,,,,,,,,,,,,,,,,,,,,,,,,,,0,49,49,28,,,,,,,,,,,,,,,,,,,,,,,,,,,,,,,,,,,,,749.7199548000353,1.0134835000499152,750.7299653000082,750.8131587000098,751.613073900051,751.713079100009,751.713079100009,751.713079100009,right,1,1.2470575000043027,,,,,,,,,,,,,,,,,,,,,,,,,,,,,,,,,,,,,007,001,2023-11-19_13h15.05.447,ETproject_Chi_2023.1.1,2023.1.1,59.98098601532278,
,,,,,,,,,,,,,,,,,,,,,,,,,,,,,,,,,,,,,,,,,,,,,,,,,,,,,,,,,,,,,,,,,,,,,,,,,,,,,,,,,,,,,,,,,,,,,,,,,,,,,,,,,,,,,,,,,,,,,,,752.979374800052,752.979374800052,space,1.484901699994225,,,,,,,007,001,2023-11-19_13h15.05.447,ETproject_Chi_2023.1.1,2023.1.1,59.98098601532278,
,,,,,,,,,,,,,Spring 4.jpg,这是秋天吗？,否,Right,Break_material/Image/Spring 4.jpg,,,,,,,,,,,,,,,,,,,,,,,,,,,,,0,0,0,3,,,,,,,,,,,,,,,,,,,,,,,,,,,,,,,,,,,,,,,,,,,,,,,,754.719362200005,758.4814562000101,758.7272727000527,760.4934005000396,760.4934005000396,760.4934005000396,760.4934005000396,right,0,0.5307674999930896,,,,,,,,,,,,,,,,,,,,,,,007,001,2023-11-19_13h15.05.447,ETproject_Chi_2023.1.1,2023.1.1,59.98098601532278,
,,,,,,,,,,,,,Spring 5.jpg,这是冬天吗？,否,Right,Break_material/Image/Spring 5.jpg,,,,,,,,,,,,,,,,,,,,,,,,,,,,,0,1,1,4,,,,,,,,,,,,,,,,,,,,,,,,,,,,,,,,,,,,,,,,,,,,,,,,761.5278991000378,765.0300183000509,765.5249867000384,767.0413132000249,767.0413132000249,767.0413132000249,767.0413132000249,right,0,0.6469972000340931,,,,,,,,,,,,,,,,,,,,,,,007,001,2023-11-19_13h15.05.447,ETproject_Chi_2023.1.1,2023.1.1,59.98098601532278,
,,,,,,,,,,,,,Spring 2.jpg,这是冬天吗？,否,Right,Break_material/Image/Spring 2.jpg,,,,,,,,,,,,,,,,,,,,,,,,,,,,,0,2,2,1,,,,,,,,,,,,,,,,,,,,,,,,,,,,,,,,,,,,,,,,,,,,,,,,767.9444642000017,771.6931989000295,771.9397967000259,773.7058837000513,773.7058837000513,773.7058837000513,773.7058837000513,right,0,0.46942999999737367,,,,,,,,,,,,,,,,,,,,,,,007,001,2023-11-19_13h15.05.447,ETproject_Chi_2023.1.1,2023.1.1,59.98098601532278,
,,,,,,,,,,,,,Spring 1.jpg,这是春天吗？,是,Left,Break_material/Image/Spring 1.jpg,,,,,,,,,,,,,,,,,,,,,,,,,,,,,0,3,3,0,,,,,,,,,,,,,,,,,,,,,,,,,,,,,,,,,,,,,,,,,,,,,,,,774.2581911000307,778.1911262000212,778.2543268000009,780.2038756000111,780.2038756000111,780.2038756000111,780.2038756000111,left,0,0.41174340003635734,,,,,,,,,,,,,,,,,,,,,,,007,001,2023-11-19_13h15.05.447,ETproject_Chi_2023.1.1,2023.1.1,59.98098601532278,
,,,,,,,,,,,,,Spring 3.jpg,这是夏天吗？,否,Right,Break_material/Image/Spring 3.jpg,,,,,,,,,,,,,,,,,,,,,,,,,,,,,0,4,4,2,,,,,,,,,,,,,,,,,,,,,,,,,,,,,,,,,,,,,,,,,,,,,,,,780.7085528000025,784.6226316000102,784.7190632999991,786.6351442000014,786.6351442000014,786.6351442000014,786.6351442000014,left,0,0.4598904999438673,,,,,,,,,,,,,,,,,,,,,,,007,001,2023-11-19_13h15.05.447,ETproject_Chi_2023.1.1,2023.1.1,59.98098601532278,
,,,,,,,,,,,,,,,,,,,,,,,,,,,,,,,,,,,,,,,,,,,,,,,,,,,,,,,,,,,,,,,,,,,,,,,,,,,,,,,,,,,,,,,,,,,,,,,,,,,,,,,,,,,,,,,,,,,,,,,,,,,787.1182443000143,787.1182443000143,space,5.354329699999653,,,007,001,2023-11-19_13h15.05.447,ETproject_Chi_2023.1.1,2023.1.1,59.98098601532278,
1,Month,一月,五月,,Hori,early,left,image/Chi_early.png,"[-0.4, 0]","[0.4, 0]",4,congruent,,,,,,,,,,,,,,,,,,,,,,,,,,,,,,,,,,,,,,0,0,0,34,,,,,,,,,,,,,,,,,,,,,,,,,,,,,792.5166239000391,0.9996713000000454,793.516062300012,793.5994309000089,794.3989442000166,794.4991286000004,794.4991286000004,794.4991286000004,left,1,1.7879954000236467,,,,,,,,,,,,,,,,,,,,,,,,,,,,,,,,,,,,,007,001,2023-11-19_13h15.05.447,ETproject_Chi_2023.1.1,2023.1.1,59.98098601532278,
100,Week,星期四,星期六,,Hori,early,left,image/Chi_early.png,"[-0.4, 0]","[0.4, 0]",2,congruent,,,,,,,,,,,,,,,,,,,,,,,,,,,,,,,,,,,,,,0,1,1,11,,,,,,,,,,,,,,,,,,,,,,,,,,,,,796.3233724000165,1.0121303999912925,797.3315303000272,797.4147729000542,798.2146037000348,798.3145226000343,798.3145226000343,798.3145226000343,left,1,1.429658000008203,,,,,,,,,,,,,,,,,,,,,,,,,,,,,,,,,,,,,007,001,2023-11-19_13h15.05.447,ETproject_Chi_2023.1.1,2023.1.1,59.98098601532278,
125,Week,星期四,星期一,,Hori,early,right,image/Chi_early.png,"[-0.4, 0]","[0.4, 0]",3,incongruent,,,,,,,,,,,,,,,,,,,,,,,,,,,,,,,,,,,,,,0,2,2,31,,,,,,,,,,,,,,,,,,,,,,,,,,,,,799.7744906000444,1.0113847999600694,800.7803368000314,800.8637251000036,801.6634517000057,801.763398900046,801.763398900046,801.763398900046,right,1,0.7797420999850146,,,,,,,,,,,,,,,,,,,,,,,,,,,,,,,,,,,,,007,001,2023-11-19_13h15.05.447,ETproject_Chi_2023.1.1,2023.1.1,59.98098601532278,
147,Week,星期五,星期二,,Vert,late,up,image/Chi_late.png,"[0, 0.4]","[0, -0.4]",3,incongruent,,,,,,,,,,,,,,,,,,,,,,,,,,,,,,,,,,,,,,0,3,3,21,,,,,,,,,,,,,,,,,,,,,,,,,,,,,802.5772531999974,0.9991583999944851,803.5795084999991,803.6631446000538,804.4625732999993,804.5625179000199,804.5625179000199,804.5625179000199,up,1,1.4925354000297375,,,,,,,,,,,,,,,,,,,,,,,,,,,,,,,,,,,,,007,001,2023-11-19_13h15.05.447,ETproject_Chi_2023.1.1,2023.1.1,59.98098601532278,
44,Month,八月,四月,,Hori,late,left,image/Chi_late.png,"[-0.4, 0]","[0.4, 0]",4,incongruent,,,,,,,,,,,,,,,,,,,,,,,,,,,,,,,,,,,,,,0,4,4,40,,,,,,,,,,,,,,,,,,,,,,,,,,,,,806.0873201000504,1.0115328999818303,807.094935400004,807.1781203999999,807.9779789000168,808.0779859000468,808.0779859000468,808.0779859000468,left,1,1.4012481000390835,,,,,,,,,,,,,,,,,,,,,,,,,,,,,,,,,,,,,007,001,2023-11-19_13h15.05.447,ETproject_Chi_2023.1.1,2023.1.1,59.98098601532278,
41,Month,八月,九月 ,,Vert,late,down,image/Chi_late.png,"[0, 0.4]","[0, -0.4]",1,congruent,,,,,,,,,,,,,,,,,,,,,,,,,,,,,,,,,,,,,,0,5,5,23,,,,,,,,,,,,,,,,,,,,,,,,,,,,,809.5178088000393,1.011707799974829,810.527080400032,810.6103732000338,811.4101964000147,811.5101904000039,811.5101904000039,811.5101904000039,down,1,1.2817666999762878,,,,,,,,,,,,,,,,,,,,,,,,,,,,,,,,,,,,,007,001,2023-11-19_13h15.05.447,ETproject_Chi_2023.1.1,2023.1.1,59.98098601532278,
35,Month,五月,七月,,Vert,late,down,image/Chi_late.png,"[0, 0.4]","[0, -0.4]",2,congruent,,,,,,,,,,,,,,,,,,,,,,,,,,,,,,,,,,,,,,0,6,6,4,,,,,,,,,,,,,,,,,,,,,,,,,,,,,812.8182002000394,1.011860400030855,813.8259770000004,813.9095131000504,814.7089735000045,814.8089793000254,814.8089793000254,814.8089793000254,down,1,0.9990054000518285,,,,,,,,,,,,,,,,,,,,,,,,,,,,,,,,,,,,,007,001,2023-11-19_13h15.05.447,ETproject_Chi_2023.1.1,2023.1.1,59.98098601532278,
142,Week,星期六,星期四,,Vert,early,down,image/Chi_early.png,"[0, 0.4]","[0, -0.4]",2,incongruent,,,,,,,,,,,,,,,,,,,,,,,,,,,,,,,,,,,,,,0,7,7,15,,,,,,,,,,,,,,,,,,,,,,,,,,,,,815.8422317000222,1.0105368999647908,816.8416879000142,816.9250651000184,817.7248559000436,817.8247638000175,817.8247638000175,817.8247638000175,down,1,1.1438517000060529,,,,,,,,,,,,,,,,,,,,,,,,,,,,,,,,,,,,,007,001,2023-11-19_13h15.05.447,ETproject_Chi_2023.1.1,2023.1.1,59.98098601532278,
28,Month,一月,四月,,Vert,late,down,image/Chi_late.png,"[0, 0.4]","[0, -0.4]",3,congruent,,,,,,,,,,,,,,,,,,,,,,,,,,,,,,,,,,,,,,0,8,8,9,,,,,,,,,,,,,,,,,,,,,,,,,,,,,819.0036229000543,1.0120217999792658,820.0072157000541,820.0906677000457,820.8902540000272,820.9905097000301,820.9905097000301,820.9905097000301,down,1,0.9362764999968931,,,,,,,,,,,,,,,,,,,,,,,,,,,,,,,,,,,,,007,001,2023-11-19_13h15.05.447,ETproject_Chi_2023.1.1,2023.1.1,59.98098601532278,
139,Week,星期三 ,星期一,,Vert,early,down,image/Chi_early.png,"[0, 0.4]","[0, -0.4]",2,incongruent,,,,,,,,,,,,,,,,,,,,,,,,,,,,,,,,,,,,,,0,9,9,13,,,,,,,,,,,,,,,,,,,,,,,,,,,,,821.9705794000183,1.0113940000301227,822.9730393000063,823.0562374000438,823.8560794000514,823.9560464000097,823.9560464000097,823.9560464000097,down,1,0.9482077999855392,,,,,,,,,,,,,,,,,,,,,,,,,,,,,,,,,,,,,007,001,2023-11-19_13h15.05.447,ETproject_Chi_2023.1.1,2023.1.1,59.98098601532278,
6,Month,六月,七月,,Hori,early,left,image/Chi_early.png,"[-0.4, 0]","[0.4, 0]",1,congruent,,,,,,,,,,,,,,,,,,,,,,,,,,,,,,,,,,,,,,0,10,10,33,,,,,,,,,,,,,,,,,,,,,,,,,,,,,824.9319537000265,1.0106694000423886,825.9387553000124,826.0221629000152,826.8219072000356,826.9215946000186,826.9215946000186,826.9215946000186,left,1,1.5580870000412688,,,,,,,,,,,,,,,,,,,,,,,,,,,,,,,,,,,,,007,001,2023-11-19_13h15.05.447,ETproject_Chi_2023.1.1,2023.1.1,59.98098601532278,
16,Month,五月,六月,,Hori,late,right,image/Chi_late.png,"[-0.4, 0]","[0.4, 0]",1,congruent,,,,,,,,,,,,,,,,,,,,,,,,,,,,,,,,,,,,,,0,11,11,32,,,,,,,,,,,,,,,,,,,,,,,,,,,,,828.5148466000101,1.013045100029558,829.5209011000115,829.60416420002,830.4039639999974,830.5040073000127,830.5040073000127,830.5040073000127,right,1,0.9351166000124067,,,,,,,,,,,,,,,,,,,,,,,,,,,,,,,,,,,,,007,001,2023-11-19_13h15.05.447,ETproject_Chi_2023.1.1,2023.1.1,59.98098601532278,
133,Week,星期三 ,星期二,,Hori,late,left,image/Chi_late.png,"[-0.4, 0]","[0.4, 0]",1,incongruent,,,,,,,,,,,,,,,,,,,,,,,,,,,,,,,,,,,,,,0,12,12,30,,,,,,,,,,,,,,,,,,,,,,,,,,,,,831.4846890000044,1.0103201000019908,832.4866672000499,832.5696992000449,833.3695409000502,833.4696300000069,833.4696300000069,833.4696300000069,left,1,1.5629071000148542,,,,,,,,,,,,,,,,,,,,,,,,,,,,,,,,,,,,,007,001,2023-11-19_13h15.05.447,ETproject_Chi_2023.1.1,2023.1.1,59.98098601532278,
20,Month,十月 ,十二月,,Hori,late,right,image/Chi_late.png,"[-0.4, 0]","[0.4, 0]",2,congruent,,,,,,,,,,,,,,,,,,,,,,,,,,,,,,,,,,,,,,0,13,13,24,,,,,,,,,,,,,,,,,,,,,,,,,,,,,835.0629443000071,1.0115086000296287,836.0686033000238,836.1520393000101,836.9518204000196,837.0517358000507,837.0517358000507,837.0517358000507,right,1,1.204584099992644,,,,,,,,,,,,,,,,,,,,,,,,,,,,,,,,,,,,,007,001,2023-11-19_13h15.05.447,ETproject_Chi_2023.1.1,2023.1.1,59.98098601532278,
3,Month,三月,七月,,Hori,early,left,image/Chi_early.png,"[-0.4, 0]","[0.4, 0]",4,congruent,,,,,,,,,,,,,,,,,,,,,,,,,,,,,,,,,,,,,,0,14,14,49,,,,,,,,,,,,,,,,,,,,,,,,,,,,,838.2966803000309,1.0115277000004426,839.3009656000067,839.384387099999,840.1841584000504,840.2842021000106,840.2842021000106,840.2842021000106,left,1,0.8828514000051655,,,,,,,,,,,,,,,,,,,,,,,,,,,,,,,,,,,,,007,001,2023-11-19_13h15.05.447,ETproject_Chi_2023.1.1,2023.1.1,59.98098601532278,
27,Month,五月,六月,,Vert,early,up,image/Chi_early.png,"[0, 0.4]","[0, -0.4]",1,congruent,,,,,,,,,,,,,,,,,,,,,,,,,,,,,,,,,,,,,,0,15,15,48,,,,,,,,,,,,,,,,,,,,,,,,,,,,,841.1931741000153,1.0105902000213973,842.1999273000401,842.2834155000164,843.083050700021,843.1829685000121,843.1829685000121,843.1829685000121,up,1,1.9280374000081792,,,,,,,,,,,,,,,,,,,,,,,,,,,,,,,,,,,,,007,001,2023-11-19_13h15.05.447,ETproject_Chi_2023.1.1,2023.1.1,59.98098601532278,
27,Month,七月,九月 ,,Vert,early,up,image/Chi_early.png,"[0, 0.4]","[0, -0.4]",2,congruent,,,,,,,,,,,,,,,,,,,,,,,,,,,,,,,,,,,,,,0,16,16,17,,,,,,,,,,,,,,,,,,,,,,,,,,,,,845.1378205000074,1.0145480000064708,846.148614100006,846.2320035000448,847.0316537000472,847.1318244000431,847.1318244000431,847.1318244000431,up,1,1.1318154000327922,,,,,,,,,,,,,,,,,,,,,,,,,,,,,,,,,,,,,007,001,2023-11-19_13h15.05.447,ETproject_Chi_2023.1.1,2023.1.1,59.98098601532278,
39,Month,六月,三月,,Hori,early,right,image/Chi_early.png,"[-0.4, 0]","[0.4, 0]",3,incongruent,,,,,,,,,,,,,,,,,,,,,,,,,,,,,,,,,,,,,,0,17,17,26,,,,,,,,,,,,,,,,,,,,,,,,,,,,,848.2869895000476,1.0138943000347354,849.2975684000412,849.3813629000215,850.1805373000097,850.28083350003,850.28083350003,850.28083350003,right,1,0.9274908999796025,,,,,,,,,,,,,,,,,,,,,,,,,,,,,,,,,,,,,007,001,2023-11-19_13h15.05.447,ETproject_Chi_2023.1.1,2023.1.1,59.98098601532278,
22,Month,二月,四月,,Vert,early,up,image/Chi_early.png,"[0, 0.4]","[0, -0.4]",2,congruent,,,,,,,,,,,,,,,,,,,,,,,,,,,,,,,,,,,,,,0,18,18,39,,,,,,,,,,,,,,,,,,,,,,,,,,,,,851.2374608000391,1.0144440999720246,852.2466008000192,852.330039100023,853.1296348000178,853.2296564000426,853.2296564000426,853.2296564000426,up,1,0.7784046999877319,,,,,,,,,,,,,,,,,,,,,,,,,,,,,,,,,,,,,007,001,2023-11-19_13h15.05.447,ETproject_Chi_2023.1.1,2023.1.1,59.98098601532278,
2,Month,二月,四月,,Hori,early,left,image/Chi_early.png,"[-0.4, 0]","[0.4, 0]",2,congruent,,,,,,,,,,,,,,,,,,,,,,,,,,,,,,,,,,,,,,0,19,19,5,,,,,,,,,,,,,,,,,,,,,,,,,,,,,855.031714300043,1.015180499991402,856.0454971000436,856.1286940000136,856.9284830000252,857.0283835000009,857.0283835000009,857.0283835000009,left,1,0.7161979000084102,,,,,,,,,,,,,,,,,,,,,,,,,,,,,,,,,,,,,007,001,2023-11-19_13h15.05.447,ETproject_Chi_2023.1.1,2023.1.1,59.98098601532278,
18,Month,二月,六月,,Vert,early,up,image/Chi_early.png,"[0, 0.4]","[0, -0.4]",4,congruent,,,,,,,,,,,,,,,,,,,,,,,,,,,,,,,,,,,,,,0,20,20,25,,,,,,,,,,,,,,,,,,,,,,,,,,,,,857.7662408000324,1.014036699954886,858.7777548000449,858.861249300011,859.6607670000521,859.761005300039,859.761005300039,859.761005300039,up,1,0.7113408000441268,,,,,,,,,,,,,,,,,,,,,,,,,,,,,,,,,,,,,007,001,2023-11-19_13h15.05.447,ETproject_Chi_2023.1.1,2023.1.1,59.98098601532278,
98,Week,星期二,星期四,,Hori,early,left,image/Chi_early.png,"[-0.4, 0]","[0.4, 0]",2,congruent,,,,,,,,,,,,,,,,,,,,,,,,,,,,,,,,,,,,,,0,21,21,47,,,,,,,,,,,,,,,,,,,,,,,,,,,,,861.4984774000477,0.999113799945917,862.509891499998,862.5932977000484,863.3930271000136,863.493035200052,863.493035200052,863.493035200052,left,1,0.6821094999904744,,,,,,,,,,,,,,,,,,,,,,,,,,,,,,,,,,,,,007,001,2023-11-19_13h15.05.447,ETproject_Chi_2023.1.1,2023.1.1,59.98098601532278,
121,Week,星期四,星期日,,Vert,late,down,image/Chi_late.png,"[0, 0.4]","[0, -0.4]",3,congruent,,,,,,,,,,,,,,,,,,,,,,,,,,,,,,,,,,,,,,0,22,22,22,,,,,,,,,,,,,,,,,,,,,,,,,,,,,864.2112510000006,1.0114627000293694,865.2258389000199,865.2924606000306,866.0920821000473,866.1921836000402,866.1921836000402,866.1921836000402,down,1,1.2706401000032201,,,,,,,,,,,,,,,,,,,,,,,,,,,,,,,,,,,,,007,001,2023-11-19_13h15.05.447,ETproject_Chi_2023.1.1,2023.1.1,59.98098601532278,
74,Month,九月 ,八月,,Vert,early,down,image/Chi_early.png,"[0, 0.4]","[0, -0.4]",1,incongruent,,,,,,,,,,,,,,,,,,,,,,,,,,,,,,,,,,,,,,0,23,23,38,,,,,,,,,,,,,,,,,,,,,,,,,,,,,867.5024096000125,0.9992118999944068,868.5079016000382,868.591442200006,869.3910709000193,869.4911013000528,869.4911013000528,869.4911013000528,down,1,1.595959500002209,,,,,,,,,,,,,,,,,,,,,,,,,,,,,,,,,,,,,007,001,2023-11-19_13h15.05.447,ETproject_Chi_2023.1.1,2023.1.1,59.98098601532278,
111,Week,星期一,星期四,,Vert,early,up,image/Chi_early.png,"[0, 0.4]","[0, -0.4]",3,congruent,,,,,,,,,,,,,,,,,,,,,,,,,,,,,,,,,,,,,,0,24,24,16,,,,,,,,,,,,,,,,,,,,,,,,,,,,,871.1170740000089,1.0110917999991216,872.1234489000053,872.2067211000249,873.0065632000333,873.1065113000222,873.1065113000222,873.1065113000222,up,1,0.8938581999973394,,,,,,,,,,,,,,,,,,,,,,,,,,,,,,,,,,,,,007,001,2023-11-19_13h15.05.447,ETproject_Chi_2023.1.1,2023.1.1,59.98098601532278,
56,Month,五月,二月,,Vert,early,down,image/Chi_early.png,"[0, 0.4]","[0, -0.4]",3,incongruent,,,,,,,,,,,,,,,,,,,,,,,,,,,,,,,,,,,,,,0,25,25,3,,,,,,,,,,,,,,,,,,,,,,,,,,,,,874.0364834000356,1.0108179000089876,875.0390853999997,875.122400799999,875.9222347000032,876.0222576000378,876.0222576000378,876.0222576000378,down,1,0.9462164000142366,,,,,,,,,,,,,,,,,,,,,,,,,,,,,,,,,,,,,007,001,2023-11-19_13h15.05.447,ETproject_Chi_2023.1.1,2023.1.1,59.98098601532278,
67,Month,七月,四月,,Vert,late,up,image/Chi_late.png,"[0, 0.4]","[0, -0.4]",3,incongruent,,,,,,,,,,,,,,,,,,,,,,,,,,,,,,,,,,,,,,0,26,26,6,,,,,,,,,,,,,,,,,,,,,,,,,,,,,876.9982345000026,1.0155820999643765,878.0048843999975,878.0881914000493,878.8879099000478,878.9878921000054,878.9878921000054,878.9878921000054,up,1,0.9957734000054188,,,,,,,,,,,,,,,,,,,,,,,,,,,,,,,,,,,,,007,001,2023-11-19_13h15.05.447,ETproject_Chi_2023.1.1,2023.1.1,59.98098601532278,
74,Month,六月,四月,,Vert,late,up,image/Chi_late.png,"[0, 0.4]","[0, -0.4]",2,incongruent,,,,,,,,,,,,,,,,,,,,,,,,,,,,,,,,,,,,,,0,27,27,27,,,,,,,,,,,,,,,,,,,,,,,,,,,,,880.0074908000533,1.0151608000160195,881.0204137000255,881.1040095000062,881.9035825000028,882.0037721000263,882.0037721000263,882.0037721000263,up,1,1.1640418999595568,,,,,,,,,,,,,,,,,,,,,,,,,,,,,,,,,,,,,007,001,2023-11-19_13h15.05.447,ETproject_Chi_2023.1.1,2023.1.1,59.98098601532278,
120,Week,星期三 ,星期四,,Vert,late,down,image/Chi_late.png,"[0, 0.4]","[0, -0.4]",1,congruent,,,,,,,,,,,,,,,,,,,,,,,,,,,,,,,,,,,,,,0,28,28,46,,,,,,,,,,,,,,,,,,,,,,,,,,,,,883.1919425000087,1.0148346000351012,884.2028778000386,884.2861004000297,885.0859755999991,885.1860533000436,885.1860533000436,885.1860533000436,down,1,0.8609282000106759,,,,,,,,,,,,,,,,,,,,,,,,,,,,,,,,,,,,,007,001,2023-11-19_13h15.05.447,ETproject_Chi_2023.1.1,2023.1.1,59.98098601532278,
17,Month,一月,五月,,Vert,early,up,image/Chi_early.png,"[0, 0.4]","[0, -0.4]",4,congruent,,,,,,,,,,,,,,,,,,,,,,,,,,,,,,,,,,,,,,0,29,29,35,,,,,,,,,,,,,,,,,,,,,,,,,,,,,886.0790735000046,1.0141067000222392,887.0853553000488,887.1685263999971,887.9683067000005,888.0681725000031,888.0681725000031,888.0681725000031,up,1,1.0355392000055872,,,,,,,,,,,,,,,,,,,,,,,,,,,,,,,,,,,,,007,001,2023-11-19_13h15.05.447,ETproject_Chi_2023.1.1,2023.1.1,59.98098601532278,
114,Week,星期四,星期六,,Vert,early,up,image/Chi_early.png,"[0, 0.4]","[0, -0.4]",2,congruent,,,,,,,,,,,,,,,,,,,,,,,,,,,,,,,,,,,,,,0,30,30,1,,,,,,,,,,,,,,,,,,,,,,,,,,,,,890.140298000013,1.015326599997934,891.1505819000304,891.2338491000119,892.0333781000227,892.13337710005,892.13337710005,892.13337710005,up,1,1.1139950000215322,,,,,,,,,,,,,,,,,,,,,,,,,,,,,,,,,,,,,007,001,2023-11-19_13h15.05.447,ETproject_Chi_2023.1.1,2023.1.1,59.98098601532278,
60,Month,六月,五月,,Hori,late,left,image/Chi_late.png,"[-0.4, 0]","[0.4, 0]",1,incongruent,,,,,,,,,,,,,,,,,,,,,,,,,,,,,,,,,,,,,,0,31,31,43,,,,,,,,,,,,,,,,,,,,,,,,,,,,,893.2842728000251,1.0115364999510348,894.2828223000397,894.3661687000422,895.1658897000016,895.2658890000312,895.2658890000312,895.2658890000312,left,1,0.8937294999486767,,,,,,,,,,,,,,,,,,,,,,,,,,,,,,,,,,,,,007,001,2023-11-19_13h15.05.447,ETproject_Chi_2023.1.1,2023.1.1,59.98098601532278,
15,Month,六月,九月 ,,Hori,late,right,image/Chi_late.png,"[-0.4, 0]","[0.4, 0]",3,congruent,,,,,,,,,,,,,,,,,,,,,,,,,,,,,,,,,,,,,,0,32,32,42,,,,,,,,,,,,,,,,,,,,,,,,,,,,,896.1853421000415,0.9991092000273056,897.198443100031,897.2819462000043,898.0815931000398,898.1817586000543,898.1817586000543,898.1817586000543,right,1,1.0267963000223972,,,,,,,,,,,,,,,,,,,,,,,,,,,,,,,,,,,,,007,001,2023-11-19_13h15.05.447,ETproject_Chi_2023.1.1,2023.1.1,59.98098601532278,
141,Week,星期四,星期三 ,,Vert,early,down,image/Chi_early.png,"[0, 0.4]","[0, -0.4]",1,incongruent,,,,,,,,,,,,,,,,,,,,,,,,,,,,,,,,,,,,,,0,33,33,7,,,,,,,,,,,,,,,,,,,,,,,,,,,,,899.2388043000246,0.9990269999834709,900.2475299000507,900.3308708000113,901.130704900017,901.2306818000507,901.2306818000507,901.2306818000507,down,1,1.1131682000122964,,,,,,,,,,,,,,,,,,,,,,,,,,,,,,,,,,,,,007,001,2023-11-19_13h15.05.447,ETproject_Chi_2023.1.1,2023.1.1,59.98098601532278,
132,Week,星期三 ,星期一,,Hori,late,left,image/Chi_late.png,"[-0.4, 0]","[0.4, 0]",2,incongruent,,,,,,,,,,,,,,,,,,,,,,,,,,,,,,,,,,,,,,0,34,34,2,,,,,,,,,,,,,,,,,,,,,,,,,,,,,902.3723323000013,0.9990936999674886,903.3799390000058,903.4632958000293,904.2629343000008,904.3629138000542,904.3629138000542,904.3629138000542,left,1,0.9420545999892056,,,,,,,,,,,,,,,,,,,,,,,,,,,,,,,,,,,,,007,001,2023-11-19_13h15.05.447,ETproject_Chi_2023.1.1,2023.1.1,59.98098601532278,
3,Month,三月,四月,,Hori,early,left,image/Chi_early.png,"[-0.4, 0]","[0.4, 0]",1,congruent,,,,,,,,,,,,,,,,,,,,,,,,,,,,,,,,,,,,,,0,35,35,19,,,,,,,,,,,,,,,,,,,,,,,,,,,,,905.3427629000507,1.0092613999731839,906.345493300003,906.428853999998,907.2286739000119,907.3285403000191,907.3285403000191,907.3285403000191,left,1,1.1913552999612875,,,,,,,,,,,,,,,,,,,,,,,,,,,,,,,,,,,,,007,001,2023-11-19_13h15.05.447,ETproject_Chi_2023.1.1,2023.1.1,59.98098601532278,
48,Month,五月,四月,,Hori,early,right,image/Chi_early.png,"[-0.4, 0]","[0.4, 0]",1,incongruent,,,,,,,,,,,,,,,,,,,,,,,,,,,,,,,,,,,,,,0,36,36,37,,,,,,,,,,,,,,,,,,,,,,,,,,,,,908.5504225000041,1.012879799993243,909.5613153000013,909.6444153000484,910.4440673000063,910.5442242000136,910.5442242000136,910.5442242000136,right,1,1.2948363000177778,,,,,,,,,,,,,,,,,,,,,,,,,,,,,,,,,,,,,007,001,2023-11-19_13h15.05.447,ETproject_Chi_2023.1.1,2023.1.1,59.98098601532278,
