No,Category,earlier_stim,later_stim,conguency,orientation,instruction,corr_resp,Instruction_stim,early_position,late_position,distance,congruency,prac_block.thisRepN,prac_block.thisTrialN,prac_block.thisN,prac_block.thisIndex,trials.thisRepN,trials.thisTrialN,trials.thisN,trials.thisIndex,block1.thisRepN,block1.thisTrialN,block1.thisN,block1.thisIndex,Break1.thisRepN,Break1.thisTrialN,Break1.thisN,Break1.thisIndex,Image,Qustion,Response,CorrAns,Path,thisRow.t,notes,Intro1.started,intro_1.started,Intro1.stopped,Intro2.started,intro_2.started,intro2_resp.started,Intro2.stopped,intro2_resp.keys,intro2_resp.rt,intro2_resp.duration,Intro3.started,Intro_3.started,intro3_resp.started,Intro3.stopped,intro3_resp.keys,intro3_resp.rt,intro3_resp.duration,Prac_intro.started,pracintro.started,pracintro_resp.started,Prac_intro.stopped,pracintro_resp.keys,pracintro_resp.rt,pracintro_resp.duration,practrial.started,image.started,practrial.stopped,solution.started,early.started,RESP.started,late.started,solution.stopped,feedback.started,pracfeedback.started,feedback.stopped,pracfeedback.stopped,Prac_check.started,Prac_check.stopped,intro5.started,intro_5.started,intro5_resp.started,intro5.stopped,intro5_resp.keys,intro5_resp.rt,intro5_resp.duration,blocks.started,main_image_2.started,fix.started,main_image_2.stopped,main_early.started,ct_resp.started,main_late.started,fix.stopped,blocks.stopped,ct_resp.keys,ct_resp.corr,ct_resp.rt,ct_resp.duration,main_early.stopped,ct_resp.stopped,main_late.stopped,break_4.started,participant,session,gender,age,date,expName,psychopyVersion,frameRate,expStart,
,,,,,,,,,,,,,,,,,,,,,,,,,,,,,,,,,,,,0.05844670801889151,0.07505912496708333,2.004986457992345,2.0050046669784933,2.0130684999749064,2.0130684999749064,9.279995999997482,space,7.237234249943867,None,,,,,,,,,,,,,,,,,,,,,,,,,,,,,,,,,,,,,,,,,,,,,,,,,,,,,333,001,,,2023-11-06_13h06.55.719,ETchi,2023.2.3,None,2023-11-06 13h07.06.877533 -0500,
,,,,,,,,,,,,,,,,,,,,,,,,,,,,,,,,,,,,,,,,,,,,,,9.280042917001992,9.286814082995988,9.286814082995988,19.047889166977257,space,9.750728500075638,None,,,,,,,,,,,,,,,,,,,,,,,,,,,,,,,,,,,,,,,,,,,,,,333,001,,,2023-11-06_13h06.55.719,ETchi,2023.2.3,None,2023-11-06 13h07.06.877533 -0500,
1,practice,星期三 ,星期四,congruent,Hori,early,left,image/Chi_early.png,"[-0.3, 0]","[0.3, 0]",,,0,0,0,0,0,0,0,0,,,,,,,,,,,,,,22.103494083043188,,,,,,,,,,,,,,,,,,,19.050876667024568,19.10960225004237,19.10960225004237,22.003575333044864,space,2.888965249992907,None,22.048128874972463,22.103494083043188,23.01405550003983,23.014110082993284,23.0356024580542,23.0356024580542,23.0356024580542,26.38771091704257,26.38772624998819,26.50352395803202,27.397737958002836,,,,,,,,,,,,,,,,,,,,,,,,,,,,333,001,,,2023-11-06_13h06.55.719,ETchi,2023.2.3,None,2023-11-06 13h07.06.877533 -0500,
7,practice,星期三 ,星期二,incongruent,Vert,early,down,image/Chi_early.png,"[0, 0.3]","[0, -0.3]",,,0,0,0,0,0,1,1,6,,,,,,,,,,,,,,27.43364062497858,,,,,,,,,,,,,,,,,,,,,,,,,,27.398254874977283,27.43364062497858,28.396292124991305,28.396309999981895,28.41218020801898,28.41218020801898,28.41218020801898,29.76457500003744,29.764590042061172,29.774183416971937,30.7647504999768,30.805950167006813,,,,,,,,,,,,,,,,,,,,,,,,,,,333,001,,,2023-11-06_13h06.55.719,ETchi,2023.2.3,None,2023-11-06 13h07.06.877533 -0500,
2,practice,星期五,星期六,congruent,Hori,late,right,image/Chi_late.png,"[-0.3, 0]","[0.3, 0]",,,0,0,0,0,0,2,2,1,,,,,,,,,,,,,,30.805950167006813,,,,,,,,,,,,,,,,,,,,,,,,,,30.765189500059932,30.805950167006813,31.77084020804614,31.770865833037533,31.78772612498142,31.78772612498142,31.78772612498142,33.105656458064914,33.10567729198374,33.11375066707842,34.09774983301759,34.132256541983224,,,,,,,,,,,,,,,,,,,,,,,,,,,333,001,,,2023-11-06_13h06.55.719,ETchi,2023.2.3,None,2023-11-06 13h07.06.877533 -0500,
8,practice,星期六,星期五,incongruent,Vert,late,up,image/Chi_late.png,"[0, 0.3]","[0, -0.3]",,,0,0,0,0,0,3,3,7,,,,,,,,,,,,,,34.132256541983224,,,,,,,,,,,,,,,,,,,,,,,,,,34.0981104579987,34.132256541983224,35.11411058297381,35.114134708070196,35.12655933306087,35.12655933306087,35.12655933306087,36.23139054200146,36.23140841699205,36.238905249978416,37.231005124980584,37.267210167017765,,,,,,,,,,,,,,,,,,,,,,,,,,,333,001,,,2023-11-06_13h06.55.719,ETchi,2023.2.3,None,2023-11-06 13h07.06.877533 -0500,
3,practice,星期一,星期二,congruent,Vert,early,up,image/Chi_early.png,"[0, 0.3]","[0, -0.3]",,,0,0,0,0,0,4,4,2,,,,,,,,,,,,,,37.267210167017765,,,,,,,,,,,,,,,,,,,,,,,,,,37.23130462504923,37.267210167017765,38.23695554200094,38.23698229203001,38.25328145804815,38.25328145804815,38.25328145804815,39.55450408300385,39.55452250002418,39.562520042061806,40.54837083304301,40.587763208081014,,,,,,,,,,,,,,,,,,,,,,,,,,,333,001,,,2023-11-06_13h06.55.719,ETchi,2023.2.3,None,2023-11-06 13h07.06.877533 -0500,
4,practice,星期日,星期一,congruent,Vert,late,down,image/Chi_late.png,"[0, 0.3]","[0, -0.3]",,,0,0,0,0,0,5,5,3,,,,,,,,,,,,,,40.587763208081014,,,,,,,,,,,,,,,,,,,,,,,,,,40.54878529207781,40.587763208081014,41.56360262504313,41.56362300005276,41.58361025003251,41.58361025003251,41.58361025003251,42.981124208075926,42.981142958044074,43.0018735419726,43.98575950006489,,,,,,,,,,,,,,,,,,,,,,,,,,,,333,001,,,2023-11-06_13h06.55.719,ETchi,2023.2.3,None,2023-11-06 13h07.06.877533 -0500,
6,practice,星期四,星期三 ,incongruent,Hori,late,left,image/Chi_late.png,"[-0.3, 0]","[0.3, 0]",,,0,0,0,0,0,6,6,5,,,,,,,,,,,,,,44.021097250049934,,,,,,,,,,,,,,,,,,,,,,,,,,43.98617012507748,44.021097250049934,44.98599191696849,44.986020541982725,45.000611250055954,45.000611250055954,45.000611250055954,46.931721042026766,46.93173995800316,46.945398417068645,47.931429582997225,47.970375666976906,,,,,,,,,,,,,,,,,,,,,,,,,,,333,001,,,2023-11-06_13h06.55.719,ETchi,2023.2.3,None,2023-11-06 13h07.06.877533 -0500,
5,practice,星期二,星期一,incongruent,Hori,early,right,image/Chi_early.png,"[-0.3, 0]","[0.3, 0]",,,0,0,0,0,0,7,7,4,,,,,,,,,,,,,,47.970375666976906,,,,,,,,,,,,,,,,,,,,,,,,,,47.93189300002996,47.970375666976906,48.93668412498664,48.936703792074695,48.950590583030134,48.950590583030134,48.950590583030134,50.02057983307168,50.02059662505053,50.03559329197742,51.02073237497825,51.02916541707236,,,,,,,,,,,,,,,,,,,,,,,,,,,333,001,,,2023-11-06_13h06.55.719,ETchi,2023.2.3,None,2023-11-06 13h07.06.877533 -0500,
,,,,,,,,,,,,,0,0,0,0,,,,,,,,,,,,,,,,,,,,,,,,,,,,,,,,,,,,,,,,,,,,,,,,,,,,,,,,51.02099420805462,51.021388499997556,,,,,,,,,,,,,,,,,,,,,,,,,333,001,,,2023-11-06_13h06.55.719,ETchi,2023.2.3,None,2023-11-06 13h07.06.877533 -0500,
,,,,,,,,,,,,,,,,,,,,,,,,,,,,,,,,,,,,,,,,,,,,,,,,,,,,,,,,,,,,,,,,,,,,,,,,,,51.02144945797045,51.02916541707236,51.02916541707236,53.18135408300441,space,2.1438599169487134,None,,,,,,,,,,,,,,,,,,333,001,,,2023-11-06_13h06.55.719,ETchi,2023.2.3,None,2023-11-06 13h07.06.877533 -0500,
142,Week,星期五,星期四,,Vert,early,down,image/Chi_early.png,"[0, 0.3]","[0, -0.3]",1,incongruent,,,,,,,,,0,0,0,0,,,,,,,,,,53.2560431669699,,,,,,,,,,,,,,,,,,,,,,,,,,,,,,,,,,,,,,,,,,,,,,,53.21672216698062,53.2560431669699,54.1800079169916,54.2516474169679,54.670438167057,54.670438167057,54.670438167057,54.670438167057,55.98805662500672,up,0,1.3164359170477837,None,,,,,333,001,,,2023-11-06_13h06.55.719,ETchi,2023.2.3,None,2023-11-06 13h07.06.877533 -0500,
75,Month,十月 ,九月 ,,Vert,early,down,image/Chi_early.png,"[0, 0.3]","[0, -0.3]",1,incongruent,,,,,,,,,0,1,1,1,,,,,,,,,,56.02722658298444,,,,,,,,,,,,,,,,,,,,,,,,,,,,,,,,,,,,,,,,,,,,,,,55.98892350005917,56.02722658298444,56.988634500070475,57.030331457965076,57.48811591707636,57.48811591707636,57.48811591707636,57.48811591707636,57.537082500057295,up,0,0.04381491697859019,None,,,,,333,001,,,2023-11-06_13h06.55.719,ETchi,2023.2.3,None,2023-11-06 13h07.06.877533 -0500,
29,Month,七月,八月,,Vert,early,up,image/Chi_early.png,"[0, 0.3]","[0, -0.3]",1,congruent,,,,,,,,,0,2,2,2,,,,,,,,,,57.57859391707461,,,,,,,,,,,,,,,,,,,,,,,,,,,,,,,,,,,,,,,,,,,,,,,57.53760312497616,57.57859391707461,58.53909958305303,58.56665316701401,59.03752308303956,59.03752308303956,59.03752308303956,59.03752308303956,59.45281912502833,left,0,0.41155737498775125,None,,,,,333,001,,,2023-11-06_13h06.55.719,ETchi,2023.2.3,None,2023-11-06 13h07.06.877533 -0500,
106,Week,星期三 ,星期六,,Hori,late,right,image/Chi_late.png,"[-0.3, 0]","[0.3, 0]",3,congruent,,,,,,,,,0,3,3,3,,,,,,,,,,59.49456220807042,,,,,,,,,,,,,,,,,,,,,,,,,,,,,,,,,,,,,,,,,,,,,,,59.45336358307395,59.49456220807042,60.44718662498053,60.4853135420708,60.95465162501205,60.95465162501205,60.95465162501205,60.93364587507676,61.00429950002581,left,0,0.04668499995023012,None,,,,,333,001,,,2023-11-06_13h06.55.719,ETchi,2023.2.3,None,2023-11-06 13h07.06.877533 -0500,
20,Month,四月,八月,,Vert,early,up,image/Chi_early.png,"[0, 0.3]","[0, -0.3]",4,congruent,,,,,,,,,0,4,4,4,,,,,,,,,,61.043815458077006,,,,,,,,,,,,,,,,,,,,,,,,,,,,,,,,,,,,,,,,,,,,,,,61.00499250006396,61.043815458077006,62.00565458298661,62.034362583071925,62.50369495805353,62.50369495805353,62.50369495805353,62.50369495805353,62.554507708060555,left,0,0.049583249958232045,None,,,,,333,001,,,2023-11-06_13h06.55.719,ETchi,2023.2.3,None,2023-11-06 13h07.06.877533 -0500,
125,Week,星期三 ,星期一,,Hori,early,right,image/Chi_early.png,"[-0.3, 0]","[0.3, 0]",2,incongruent,,,,,,,,,0,5,5,5,,,,,,,,,,62.59352350002155,,,,,,,,,,,,,,,,,,,,,,,,,,,,,,,,,,,,,,,,,,,,,,,62.55521854199469,62.59352350002155,63.55412666697521,63.58441941707861,64.04577454202808,64.04577454202808,64.04577454202808,64.04577454202808,64.19755216699559,left,0,0.14675983390770853,None,,,,,333,001,,,2023-11-06_13h06.55.719,ETchi,2023.2.3,None,2023-11-06 13h07.06.877533 -0500,
99,Week,星期三 ,星期六,,Hori,early,left,image/Chi_early.png,"[-0.3, 0]","[0.3, 0]",3,congruent,,,,,,,,,0,6,6,6,,,,,,,,,,64.23648141697049,,,,,,,,,,,,,,,,,,,,,,,,,,,,,,,,,,,,,,,,,,,,,,,64.19821154198144,64.23648141697049,65.19569037505426,65.230619625072,65.68696395796724,65.68696395796724,65.68696395796724,65.68696395796724,65.81460425001569,left,1,0.1202818329911679,None,,,,,333,001,,,2023-11-06_13h06.55.719,ETchi,2023.2.3,None,2023-11-06 13h07.06.877533 -0500,
139,Week,星期四,星期一,,Vert,early,down,image/Chi_early.png,"[0, 0.3]","[0, -0.3]",3,incongruent,,,,,,,,,0,7,7,7,,,,,,,,,,65.85296279203612,,,,,,,,,,,,,,,,,,,,,,,,,,,,,,,,,,,,,,,,,,,,,,,65.81518716702703,65.85296279203612,66.81228066701442,66.84686979197431,67.31336200004444,67.31336200004444,67.31336200004444,67.30117187497672,67.41396116698161,left,0,0.09330950002186,None,,,,,333,001,,,2023-11-06_13h06.55.719,ETchi,2023.2.3,None,2023-11-06 13h07.06.877533 -0500,
24,Month,四月,六月,,Vert,early,up,image/Chi_early.png,"[0, 0.3]","[0, -0.3]",2,congruent,,,,,,,,,0,8,8,8,,,,,,,,,,67.44876800000202,,,,,,,,,,,,,,,,,,,,,,,,,,,,,,,,,,,,,,,,,,,,,,,67.41445908299647,67.44876800000202,68.4049936250085,68.44715312507469,68.9037016669754,68.9037016669754,68.9037016669754,68.9037016669754,69.05363075004425,left,0,0.14547616604249924,None,,,,,333,001,,,2023-11-06_13h06.55.719,ETchi,2023.2.3,None,2023-11-06 13h07.06.877533 -0500,
12,Week,星期日,星期四,,Vert,late,up,image/Chi_late.png,"[0, 0.3]","[0, -0.3]",3,incongruent,,,,,,,,,0,9,9,9,,,,,,,,,,69.09330954204779,,,,,,,,,,,,,,,,,,,,,,,,,,,,,,,,,,,,,,,,,,,,,,,69.05414358305279,69.09330954204779,70.04588724998757,70.0836598330643,70.55608037498314,70.55608037498314,70.55608037498314,70.53378458297811,70.75368612504099,left,0,0.19302454101853073,None,,,,,333,001,,,2023-11-06_13h06.55.719,ETchi,2023.2.3,None,2023-11-06 13h07.06.877533 -0500,
116,Week,星期六,星期日,,Vert,early,up,image/Chi_early.png,"[0, 0.3]","[0, -0.3]",1,congruent,,,,,,,,,0,10,10,10,,,,,,,,,,70.79147416702472,,,,,,,,,,,,,,,,,,,,,,,,,,,,,,,,,,,,,,,,,,,,,,,70.75420429196674,70.79147416702472,71.74561079207342,71.78538374998607,72.24580008303747,72.24580008303747,72.24580008303747,72.23775116703473,72.40356329199858,left,0,0.1522112910170108,None,,,,,333,001,,,2023-11-06_13h06.55.719,ETchi,2023.2.3,None,2023-11-06 13h07.06.877533 -0500,
34,Month,七月,十月 ,,Vert,late,down,image/Chi_late.png,"[0, 0.3]","[0, -0.3]",3,congruent,,,,,,,,,0,11,11,11,,,,,,,,,,72.44176195806358,,,,,,,,,,,,,,,,,,,,,,,,,,,,,,,,,,,,,,,,,,,,,,,72.40413929207716,72.44176195806358,73.40532145800535,73.43458370806184,73.9034777500201,73.9034777500201,73.9034777500201,73.9034777500201,74.00363845797256,left,0,0.09760225005447865,None,,,,,333,001,,,2023-11-06_13h06.55.719,ETchi,2023.2.3,None,2023-11-06 13h07.06.877533 -0500,
114,Week,星期四,星期日,,Vert,early,up,image/Chi_early.png,"[0, 0.3]","[0, -0.3]",3,congruent,,,,,,,,,0,12,12,12,,,,,,,,,,74.04172891704366,,,,,,,,,,,,,,,,,,,,,,,,,,,,,,,,,,,,,,,,,,,,,,,74.00421745807398,74.04172891704366,75.00530354201328,75.0333939170232,75.50345033302438,75.50345033302438,75.50345033302438,75.50345033302438,75.64732700004242,left,0,0.13920695800334215,None,,,,,333,001,,,2023-11-06_13h06.55.719,ETchi,2023.2.3,None,2023-11-06 13h07.06.877533 -0500,
127,Week,星期五,星期三 ,,Hori,early,right,image/Chi_early.png,"[-0.3, 0]","[0.3, 0]",2,incongruent,,,,,,,,,0,13,13,13,,,,,,,,,,75.68247025005985,,,,,,,,,,,,,,,,,,,,,,,,,,,,,,,,,,,,,,,,,,,,,,,75.64791766705457,75.68247025005985,76.63903104199562,76.68050716700964,77.1372619579779,77.1372619579779,77.1372619579779,77.1372619579779,77.31274041708093,left,0,0.16619049990549684,None,,,,,333,001,,,2023-11-06_13h06.55.719,ETchi,2023.2.3,None,2023-11-06 13h07.06.877533 -0500,
46,Month,四月,一月,,Hori,late,left,image/Chi_late.png,"[-0.3, 0]","[0.3, 0]",3,incongruent,,,,,,,,,0,14,14,14,,,,,,,,,,77.34870620805304,,,,,,,,,,,,,,,,,,,,,,,,,,,,,,,,,,,,,,,,,,,,,,,77.31329012499191,77.34870620805304,78.3059124170104,78.34667350002564,78.80400579201523,78.80400579201523,78.80400579201523,78.80400579201523,79.95357825001702,left,1,1.147263583028689,None,,,,,333,001,,,2023-11-06_13h06.55.719,ETchi,2023.2.3,None,2023-11-06 13h07.06.877533 -0500,
141,Week,星期五,星期三 ,,Vert,early,down,image/Chi_early.png,"[0, 0.3]","[0, -0.3]",2,incongruent,,,,,,,,,0,15,15,15,,,,,,,,,,79.99219958297908,,,,,,,,,,,,,,,,,,,,,,,,,,,,,,,,,,,,,,,,,,,,,,,79.95416587498039,79.99219958297908,80.9455758749973,80.9844782500295,81.45420366700273,81.45420366700273,81.45420366700273,81.43384166702162,81.51922029198613,left,0,0.06031525006983429,None,,,,,333,001,,,2023-11-06_13h06.55.719,ETchi,2023.2.3,None,2023-11-06 13h07.06.877533 -0500,
107,Week,星期四,星期六,,Hori,late,right,image/Chi_late.png,"[-0.3, 0]","[0.3, 0]",2,congruent,,,,,,,,,0,16,16,16,,,,,,,,,,81.55737825005781,,,,,,,,,,,,,,,,,,,,,,,,,,,,,,,,,,,,,,,,,,,,,,,81.51972995803226,81.55737825005781,82.51202666701283,82.54987054201774,83.02003925002646,83.02003925002646,83.02003925002646,83.00173266697675,83.13063004205469,left,0,0.10605520801618695,None,,,,,333,001,,,2023-11-06_13h06.55.719,ETchi,2023.2.3,None,2023-11-06 13h07.06.877533 -0500,
136,Week,星期日,星期五,,Hori,late,left,image/Chi_late.png,"[-0.3, 0]","[0.3, 0]",2,incongruent,,,,,,,,,0,17,17,17,,,,,,,,,,83.16898462502286,,,,,,,,,,,,,,,,,,,,,,,,,,,,,,,,,,,,,,,,,,,,,,,83.13121404207777,83.16898462502286,84.12902262504213,84.16390904202126,84.62983491702471,84.62983491702471,84.62983491702471,84.61718050006311,85.1793890830595,left,1,0.5402188750449568,None,,,,,333,001,,,2023-11-06_13h06.55.719,ETchi,2023.2.3,None,2023-11-06 13h07.06.877533 -0500,
58,Month,六月,二月,,Vert,late,up,image/Chi_late.png,"[0, 0.3]","[0, -0.3]",4,incongruent,,,,,,,,,0,18,18,18,,,,,,,,,,85.21337679203134,,,,,,,,,,,,,,,,,,,,,,,,,,,,,,,,,,,,,,,,,,,,,,,85.18002704204991,85.21337679203134,86.17251437506638,86.213573792018,86.67013154202141,86.67013154202141,86.67013154202141,86.67013154202141,90.23052266705781,left,0,3.556295165908523,None,,,,,333,001,,,2023-11-06_13h06.55.719,ETchi,2023.2.3,None,2023-11-06 13h07.06.877533 -0500,
132,Week,星期四,星期一,,Hori,late,left,image/Chi_late.png,"[-0.3, 0]","[0.3, 0]",3,incongruent,,,,,,,,,0,19,19,19,,,,,,,,,,90.26946691703051,,,,,,,,,,,,,,,,,,,,,,,,,,,,,,,,,,,,,,,,,,,,,,,90.23112520796712,90.26946691703051,91.22869291703682,91.26219670800492,91.72124624997377,91.72124624997377,91.72124624997377,91.72124624997377,91.91419137502089,left,1,0.18378745892550796,None,,,,,333,001,,,2023-11-06_13h06.55.719,ETchi,2023.2.3,None,2023-11-06 13h07.06.877533 -0500,
97,Week,星期一,星期四,,Hori,early,left,image/Chi_early.png,"[-0.3, 0]","[0.3, 0]",3,congruent,,,,,,,,,0,20,20,20,,,,,,,,,,91.95343658304773,,,,,,,,,,,,,,,,,,,,,,,,,,,,,,,,,,,,,,,,,,,,,,,91.91486479202285,91.95343658304773,92.91224833298475,92.94523470802233,93.41307204205077,93.41307204205077,93.41307204205077,93.40067262505181,98.39639083307702,None,0,,,98.43071666697506,98.43071666697506,98.43071666697506,,333,001,,,2023-11-06_13h06.55.719,ETchi,2023.2.3,None,2023-11-06 13h07.06.877533 -0500,
34,Month,六月,二月,,Hori,early,right,image/Chi_early.png,"[-0.3, 0]","[0.3, 0]",4,incongruent,,,,,,,,,0,21,21,21,,,,,,,,,,98.43071666697506,,,,,,,,,,,,,,,,,,,,,,,,,,,,,,,,,,,,,,,,,,,,,,,98.39712787501048,98.43071666697506,99.4132859170204,99.42061129200738,99.90485599997919,99.90485599997919,99.90485599997919,99.90485599997919,103.73600220796652,left,0,3.826140542048961,None,,,,,333,001,,,2023-11-06_13h06.55.719,ETchi,2023.2.3,None,2023-11-06 13h07.06.877533 -0500,
63,Month,十二月,九月 ,,Vert,early,down,image/Chi_early.png,"[0, 0.3]","[0, -0.3]",3,incongruent,,,,,,,,,0,22,22,22,,,,,,,,,,103.77233637496829,,,,,,,,,,,,,,,,,,,,,,,,,,,,,,,,,,,,,,,,,,,,,,,103.73652554198634,103.77233637496829,104.72895008302294,104.76817062497139,105.23687395802699,105.23687395802699,105.23687395802699,105.21632175007835,110.23044320801273,None,0,,,110.26774979196489,110.26774979196489,110.26774979196489,,333,001,,,2023-11-06_13h06.55.719,ETchi,2023.2.3,None,2023-11-06 13h07.06.877533 -0500,
150,Week,星期六,星期五,,Vert,late,up,image/Chi_late.png,"[0, 0.3]","[0, -0.3]",1,incongruent,,,,,,,,,0,23,23,23,,,,,,,,,,110.26774979196489,,,,,,,,,,,,,,,,,,,,,,,,,,,,,,,,,,,,,,,,,,,,,,,110.23089950007852,110.26774979196489,111.22836045804434,111.26294804201461,111.74579283304047,111.74579283304047,111.74579283304047,111.71672991698142,113.16368650004733,left,0,1.4065507089253515,None,,,,,333,001,,,2023-11-06_13h06.55.719,ETchi,2023.2.3,None,2023-11-06 13h07.06.877533 -0500,
112,Week,星期二,星期五,,Vert,early,up,image/Chi_early.png,"[0, 0.3]","[0, -0.3]",3,congruent,,,,,,,,,0,24,24,24,,,,,,,,,,113.20340954198036,,,,,,,,,,,,,,,,,,,,,,,,,,,,,,,,,,,,,,,,,,,,,,,113.16427291696891,113.20340954198036,114.16174408304505,114.19612116704229,114.65445195802022,114.65445195802022,114.65445195802022,114.65445195802022,114.86852054204792,left,0,0.21061041695065796,None,,,,,333,001,,,2023-11-06_13h06.55.719,ETchi,2023.2.3,None,2023-11-06 13h07.06.877533 -0500,
126,Week,星期三 ,星期二,,Hori,early,right,image/Chi_early.png,"[-0.3, 0]","[0.3, 0]",1,incongruent,,,,,,,,,0,25,25,25,,,,,,,,,,114.90358300006483,,,,,,,,,,,,,,,,,,,,,,,,,,,,,,,,,,,,,,,,,,,,,,,114.86910949996673,114.90358300006483,115.86211058299523,115.89593991707079,116.37161174998619,116.37161174998619,116.37161174998619,116.34953450004105,117.88034637505189,left,0,1.4983774580759928,None,,,,,333,001,,,2023-11-06_13h06.55.719,ETchi,2023.2.3,None,2023-11-06 13h07.06.877533 -0500,
148,Week,星期六,星期三 ,,Vert,late,up,image/Chi_late.png,"[0, 0.3]","[0, -0.3]",3,incongruent,,,,,,,,,0,26,26,26,,,,,,,,,,117.92046295804903,,,,,,,,,,,,,,,,,,,,,,,,,,,,,,,,,,,,,,,,,,,,,,,117.88095937506296,117.92046295804903,118.89649387507234,118.91258137498517,119.3797988750739,119.3797988750739,119.3797988750739,119.38533245807048,124.07041100005154,left,0,4.684734124923125,None,,,,,333,001,,,2023-11-06_13h06.55.719,ETchi,2023.2.3,None,2023-11-06 13h07.06.877533 -0500,
62,Month,十月 ,六月,,Vert,late,up,image/Chi_late.png,"[0, 0.3]","[0, -0.3]",4,incongruent,,,,,,,,,0,27,27,27,,,,,,,,,,124.11277520807926,,,,,,,,,,,,,,,,,,,,,,,,,,,,,,,,,,,,,,,,,,,,,,,124.07140520797111,124.11277520807926,125.06936241697986,125.10082562500611,125.57063958304934,125.57063958304934,125.57063958304934,125.56277812505141,125.58496787503827,left,0,0.009354665991850197,None,,,,,333,001,,,2023-11-06_13h06.55.719,ETchi,2023.2.3,None,2023-11-06 13h07.06.877533 -0500,
1,Month,一月,二月 ,,Hori,early,left,image/Chi_early.png,"[-0.3, 0]","[0.3, 0]",1,congruent,,,,,,,,,0,28,28,28,,,,,,,,,,125.62814987497404,,,,,,,,,,,,,,,,,,,,,,,,,,,,,,,,,,,,,,,,,,,,,,,125.58547912503127,125.62814987497404,126.57964029198047,126.6174670420587,127.0864930000389,127.0864930000389,127.0864930000389,127.07905891700648,127.26912495796569,left,1,0.18081466597504914,None,,,,,333,001,,,2023-11-06_13h06.55.719,ETchi,2023.2.3,None,2023-11-06 13h07.06.877533 -0500,
6,Month,六月,十月 ,,Hori,early,left,image/Chi_early.png,"[-0.3, 0]","[0.3, 0]",4,congruent,,,,,,,,,0,29,29,29,,,,,,,,,,127.30423004203476,,,,,,,,,,,,,,,,,,,,,,,,,,,,,,,,,,,,,,,,,,,,,,,127.26960708305705,127.30423004203476,128.26184970804024,128.2999899169663,128.77210791700054,128.77210791700054,128.77210791700054,128.7495692500379,128.88680029206444,left,1,0.11351558298338205,None,,,,,333,001,,,2023-11-06_13h06.55.719,ETchi,2023.2.3,None,2023-11-06 13h07.06.877533 -0500,
16,Month,六月,八月,,Hori,late,right,image/Chi_late.png,"[-0.3, 0]","[0.3, 0]",2,congruent,,,,,,,,,0,30,30,30,,,,,,,,,,128.9220244999742,,,,,,,,,,,,,,,,,,,,,,,,,,,,,,,,,,,,,,,,,,,,,,,128.88727825006936,128.9220244999742,129.8787993750302,129.91786512499675,130.3871762920171,130.3871762920171,130.3871762920171,130.36641320807394,130.5133327919757,left,0,0.11690274998545647,None,,,,,333,001,,,2023-11-06_13h06.55.719,ETchi,2023.2.3,None,2023-11-06 13h07.06.877533 -0500,
112,Week,星期二,星期三 ,,Vert,early,up,image/Chi_early.png,"[0, 0.3]","[0, -0.3]",1,congruent,,,,,,,,,0,31,31,31,,,,,,,,,,130.55263391707558,,,,,,,,,,,,,,,,,,,,,,,,,,,,,,,,,,,,,,,,,,,,,,,130.51398354198318,130.55263391707558,131.5115623329766,131.54670395806897,132.00324487499893,132.00324487499893,132.00324487499893,132.00324487499893,132.1867117920192,left,0,0.1778491250006482,None,,,,,333,001,,,2023-11-06_13h06.55.719,ETchi,2023.2.3,None,2023-11-06 13h07.06.877533 -0500,
26,Month,六月,八月,,Vert,early,up,image/Chi_early.png,"[0, 0.3]","[0, -0.3]",2,congruent,,,,,,,,,0,32,32,32,,,,,,,,,,132.2217513329815,,,,,,,,,,,,,,,,,,,,,,,,,,,,,,,,,,,,,,,,,,,,,,,132.18721416697372,132.2217513329815,133.18778554198798,133.21604987501632,133.68889462505467,133.68889462505467,133.68889462505467,133.68889462505467,133.88668441702612,left,0,0.1946122080553323,None,,,,,333,001,,,2023-11-06_13h06.55.719,ETchi,2023.2.3,None,2023-11-06 13h07.06.877533 -0500,
24,Month,六月,九月 ,,Vert,early,up,image/Chi_early.png,"[0, 0.3]","[0, -0.3]",3,congruent,,,,,,,,,0,33,33,33,,,,,,,,,,133.92056454205886,,,,,,,,,,,,,,,,,,,,,,,,,,,,,,,,,,,,,,,,,,,,,,,133.88726420805324,133.92056454205886,134.8882331670029,134.9161970000714,135.3860342920525,135.3860342920525,135.3860342920525,135.3860342920525,135.56998687505256,left,0,0.18207945802714676,None,,,,,333,001,,,2023-11-06_13h06.55.719,ETchi,2023.2.3,None,2023-11-06 13h07.06.877533 -0500,
120,Week,星期三 ,星期六,,Vert,late,down,image/Chi_late.png,"[0, 0.3]","[0, -0.3]",3,congruent,,,,,,,,,0,34,34,34,,,,,,,,,,135.60911058296915,,,,,,,,,,,,,,,,,,,,,,,,,,,,,,,,,,,,,,,,,,,,,,,135.57057483308017,135.60911058296915,136.57108700007666,136.59922129206825,137.0694164170418,137.0694164170418,137.0694164170418,137.0694164170418,137.6193693750538,left,0,0.5447390830377117,None,,,,,333,001,,,2023-11-06_13h06.55.719,ETchi,2023.2.3,None,2023-11-06 13h07.06.877533 -0500,
50,Month,八月,五月,,Hori,late,left,image/Chi_late.png,"[-0.3, 0]","[0.3, 0]",3,incongruent,,,,,,,,,0,35,35,35,,,,,,,,,,137.65502991701942,,,,,,,,,,,,,,,,,,,,,,,,,,,,,,,,,,,,,,,,,,,,,,,137.61996462498792,137.65502991701942,138.61264045804273,138.64920483296737,139.12113154202234,139.12113154202234,139.12113154202234,139.09990812500473,139.29620233306196,left,1,0.16816329106222838,None,,,,,333,001,,,2023-11-06_13h06.55.719,ETchi,2023.2.3,None,2023-11-06 13h07.06.877533 -0500,
143,Week,星期六,星期五,,Vert,early,down,image/Chi_early.png,"[0, 0.3]","[0, -0.3]",1,incongruent,,,,,,,,,0,36,36,36,,,,,,,,,,139.33531783299986,,,,,,,,,,,,,,,,,,,,,,,,,,,,,,,,,,,,,,,,,,,,,,,139.29678558302112,139.33531783299986,140.295246707974,140.32874183298554,140.7874624170363,140.7874624170363,140.7874624170363,140.7874624170363,141.38303354207892,left,0,0.5931770000606775,None,,,,,333,001,,,2023-11-06_13h06.55.719,ETchi,2023.2.3,None,2023-11-06 13h07.06.877533 -0500,
38,Month,八月,十月 ,,Vert,late,down,image/Chi_late.png,"[0, 0.3]","[0, -0.3]",2,congruent,,,,,,,,,0,37,37,37,,,,,,,,,,141.41942012507934,,,,,,,,,,,,,,,,,,,,,,,,,,,,,,,,,,,,,,,,,,,,,,,141.38349079200998,141.41942012507934,142.37820108304732,142.41262404201552,142.88240545801818,142.88240545801818,142.88240545801818,142.86596654204186,144.82925116701517,left,0,1.9394655410433188,None,,,,,333,001,,,2023-11-06_13h06.55.719,ETchi,2023.2.3,None,2023-11-06 13h07.06.877533 -0500,
49,Month,七月,四月,,Hori,late,left,image/Chi_late.png,"[-0.3, 0]","[0.3, 0]",3,incongruent,,,,,,,,,0,38,38,38,,,,,,,,,,144.8703396670753,,,,,,,,,,,,,,,,,,,,,,,,,,,,,,,,,,,,,,,,,,,,,,,144.82985608302988,144.8703396670753,145.83044479205273,145.86666520801373,146.32074695802294,146.32074695802294,146.32074695802294,146.32770720799454,146.82969975005835,left,1,0.5034090409753844,None,,,,,333,001,,,2023-11-06_13h06.55.719,ETchi,2023.2.3,None,2023-11-06 13h07.06.877533 -0500,
45,Month,九月 ,五月,,Hori,late,left,image/Chi_late.png,"[-0.3, 0]","[0.3, 0]",4,incongruent,,,,,,,,,0,39,39,39,,,,,,,,,,146.86883716704324,,,,,,,,,,,,,,,,,,,,,,,,,,,,,,,,,,,,,,,,,,,,,,,146.8303165420657,146.86883716704324,147.828497666982,147.8667778329691,148.31930766697042,148.31930766697042,148.31930766697042,148.31930766697042,148.3964483330492,left,1,0.07203891698736697,None,,,,,333,001,,,2023-11-06_13h06.55.719,ETchi,2023.2.3,None,2023-11-06 13h07.06.877533 -0500,
101,Week,星期五,星期日,,Hori,early,left,image/Chi_early.png,"[-0.3, 0]","[0.3, 0]",2,congruent,,,,,,,,,0,40,40,40,,,,,,,,,,148.43559320806526,,,,,,,,,,,,,,,,,,,,,,,,,,,,,,,,,,,,,,,,,,,,,,,148.3970428330358,148.43559320806526,149.39472704206128,149.42896958300844,149.89650625002105,149.89650625002105,149.89650625002105,149.88256137503777,150.08551429200452,left,1,0.1881193749140948,None,,,,,333,001,,,2023-11-06_13h06.55.719,ETchi,2023.2.3,None,2023-11-06 13h07.06.877533 -0500,
13,Month,四月,七月,,Hori,late,right,image/Chi_late.png,"[-0.3, 0]","[0.3, 0]",3,congruent,,,,,,,,,0,41,41,41,,,,,,,,,,150.1229587920243,,,,,,,,,,,,,,,,,,,,,,,,,,,,,,,,,,,,,,,,,,,,,,,150.08614629204385,150.1229587920243,151.08763349999208,151.11674529197626,151.58726895798463,151.58726895798463,151.58726895798463,151.58726895798463,151.63534291705582,left,0,0.04480516701005399,None,,,,,333,001,,,2023-11-06_13h06.55.719,ETchi,2023.2.3,None,2023-11-06 13h07.06.877533 -0500,
101,Week,星期五,星期六,,Hori,early,left,image/Chi_early.png,"[-0.3, 0]","[0.3, 0]",1,congruent,,,,,,,,,0,42,42,42,,,,,,,,,,151.6738034579903,,,,,,,,,,,,,,,,,,,,,,,,,,,,,,,,,,,,,,,,,,,,,,,151.63591933296993,151.6738034579903,152.62814187502954,152.6662380420603,153.13631404202897,153.13631404202897,153.13631404202897,153.1155833330704,153.16312129201833,left,1,0.020641125040128827,None,,,,,333,001,,,2023-11-06_13h06.55.719,ETchi,2023.2.3,None,2023-11-06 13h07.06.877533 -0500,
77,Month,九月 ,七月,,Vert,late,up,image/Chi_late.png,"[0, 0.3]","[0, -0.3]",2,incongruent,,,,,,,,,0,43,43,43,,,,,,,,,,153.20218899997417,,,,,,,,,,,,,,,,,,,,,,,,,,,,,,,,,,,,,,,,,,,,,,,153.16384175000712,153.20218899997417,154.16285383305512,154.19604645797517,154.66213199996855,154.66213199996855,154.66213199996855,154.64975908305496,154.8459522080375,left,0,0.17485641699749976,None,,,,,333,001,,,2023-11-06_13h06.55.719,ETchi,2023.2.3,None,2023-11-06 13h07.06.877533 -0500,
78,Month,十月 ,八月,,Vert,late,up,image/Chi_late.png,"[0, 0.3]","[0, -0.3]",2,incongruent,,,,,,,,,0,44,44,44,,,,,,,,,,154.88539837498683,,,,,,,,,,,,,,,,,,,,,,,,,,,,,,,,,,,,,,,,,,,,,,,154.8465474579716,154.88539837498683,155.83594191703014,155.87903408298735,156.33581570803653,156.33581570803653,156.33581570803653,156.33581570803653,156.4353790000314,left,0,0.09505075006745756,None,,,,,333,001,,,2023-11-06_13h06.55.719,ETchi,2023.2.3,None,2023-11-06 13h07.06.877533 -0500,
118,Week,星期一,星期四,,Vert,late,down,image/Chi_late.png,"[0, 0.3]","[0, -0.3]",3,congruent,,,,,,,,,0,45,45,45,,,,,,,,,,156.47150737501215,,,,,,,,,,,,,,,,,,,,,,,,,,,,,,,,,,,,,,,,,,,,,,,156.4359221670311,156.47150737501215,157.427611000021,157.46800208301283,157.93614412506577,157.93614412506577,157.93614412506577,157.9159101670375,158.00272516696714,left,0,0.06104941701050848,None,,,,,333,001,,,2023-11-06_13h06.55.719,ETchi,2023.2.3,None,2023-11-06 13h07.06.877533 -0500,
150,Week,星期日,星期五,,Vert,late,up,image/Chi_late.png,"[0, 0.3]","[0, -0.3]",2,incongruent,,,,,,,,,0,46,46,46,,,,,,,,,,158.04104720801115,,,,,,,,,,,,,,,,,,,,,,,,,,,,,,,,,,,,,,,,,,,,,,,158.0034211250022,158.04104720801115,159.00484954204876,159.03527120803483,159.50254104204942,159.50254104204942,159.50254104204942,159.50254104204942,159.56921175005846,left,0,0.06234987499192357,None,,,,,333,001,,,2023-11-06_13h06.55.719,ETchi,2023.2.3,None,2023-11-06 13h07.06.877533 -0500,
59,Month,七月,三月,,Vert,late,up,image/Chi_late.png,"[0, 0.3]","[0, -0.3]",4,incongruent,,,,,,,,,0,47,47,47,,,,,,,,,,159.605984875001,,,,,,,,,,,,,,,,,,,,,,,,,,,,,,,,,,,,,,,,,,,,,,,159.5698155000573,159.605984875001,160.5722336670151,160.59893379197456,161.07179433305282,161.07179433305282,161.07179433305282,161.07179433305282,161.2296046250267,left,0,0.14995941694360226,None,,,,,333,001,,,2023-11-06_13h06.55.719,ETchi,2023.2.3,None,2023-11-06 13h07.06.877533 -0500,
23,Month,七月,十一月 ,,Vert,early,up,image/Chi_early.png,"[0, 0.3]","[0, -0.3]",4,congruent,,,,,,,,,0,48,48,48,,,,,,,,,,161.26905445801094,,,,,,,,,,,,,,,,,,,,,,,,,,,,,,,,,,,,,,,,,,,,,,,161.23019712499809,161.26905445801094,162.22968604206108,162.26219629205298,162.7289867500076,162.7289867500076,162.7289867500076,162.7289867500076,162.86289387498982,left,0,0.12585512502118945,None,,,,,333,001,,,2023-11-06_13h06.55.719,ETchi,2023.2.3,None,2023-11-06 13h07.06.877533 -0500,
98,Week,星期二,星期三 ,,Hori,early,left,image/Chi_early.png,"[-0.3, 0]","[0.3, 0]",1,congruent,,,,,,,,,0,49,49,49,,,,,,,,,,162.9022975830594,,,,,,,,,,,,,,,,,,,,,,,,,,,,,,,,,,,,,,,,,,,,,,,162.86351841699798,162.9022975830594,163.8623566670576,163.90003466699272,164.35254770796746,164.35254770796746,164.35254770796746,164.35254770796746,164.4450510420138,left,1,0.08281900000292808,None,,,,,333,001,,,2023-11-06_13h06.55.719,ETchi,2023.2.3,None,2023-11-06 13h07.06.877533 -0500,
,,,,,,,,,,,,,,,,,,,,,,,,,,,,,,,,,,,,,,,,,,,,,,,,,,,,,,,,,,,,,,,,,,,,,,,,,,,,,,,,,,,,,,,,,,,,,,,,,164.4652793330606,,,,,,,,,,
