No,Category,earlier_stim,later_stim,conguency,orientation,instruction,corr_resp,Instruction_stim,early_position,late_position,distance,congruency,Image,Qustion,Response,CorrAns,Path,prac_block.thisRepN,prac_block.thisTrialN,prac_block.thisN,prac_block.thisIndex,trials.thisRepN,trials.thisTrialN,trials.thisN,trials.thisIndex,block1.thisRepN,block1.thisTrialN,block1.thisN,block1.thisIndex,break1.thisRepN,break1.thisTrialN,break1.thisN,break1.thisIndex,block2.thisRepN,block2.thisTrialN,block2.thisN,block2.thisIndex,break2.thisRepN,break2.thisTrialN,break2.thisN,break2.thisIndex,block3.thisRepN,block3.thisTrialN,block3.thisN,block3.thisIndex,break3.thisRepN,break3.thisTrialN,break3.thisN,break3.thisIndex,block4.thisRepN,block4.thisTrialN,block4.thisN,block4.thisIndex,intro_1.started,intro_1.stopped,intro_2.started,intro2_resp.started,intro2_resp.keys,intro2_resp.rt,Intro_3.started,intro3_resp.started,intro3_resp.keys,intro3_resp.rt,pracintro.started,pracintro_resp.started,pracintro_resp.keys,pracintro_resp.rt,image.started,early.started,RESP.started,late.started,pracfeedback.started,pracfeedback.stopped,image.stopped,text_4.started,text_5.started,text_4.stopped,baselinerecord.started,intro_5.started,intro5_resp.started,intro5_resp.keys,intro5_resp.rt,main_image_2.started,etRecord.started,main_image_2.stopped,fix.started,fix.stopped,main_early.started,ct_resp.started,main_late.started,ct_resp.keys,ct_resp.corr,ct_resp.rt,intro.started,intro2_resp_2.started,intro2_resp_2.keys,intro2_resp_2.rt,fengjing.started,text.started,fengjing.stopped,text.stopped,key_resp.started,text_2.started,text_3.started,key_resp.keys,key_resp.corr,key_resp.rt,intro_6.started,intro5_resp_2.started,intro5_resp_2.keys,intro5_resp_2.rt,intro_3.started,intro2_resp_3.started,intro2_resp_3.keys,intro2_resp_3.rt,intro_7.started,intro2_resp_5.started,intro2_resp_5.keys,intro2_resp_5.rt,intro_4.started,intro2_resp_4.started,intro2_resp_4.keys,intro2_resp_4.rt,intro_8.started,intro2_resp_6.started,intro2_resp_6.keys,intro2_resp_6.rt,theend.started,theend.stopped,participant,session,date,expName,psychopyVersion,frameRate,
,,,,,,,,,,,,,,,,,,,,,,,,,,,,,,,,,,,,,,,,,,,,,,,,,,,,,,217.5670020999387,219.5736784003675,219.5736784003675,219.5736784003675,space,34.25169939920306,,,,,,,,,,,,,,,,,,,,,,,,,,,,,,,,,,,,,,,,,,,,,,,,,,,,,,,,,,,,,,,,,,,,,,,001,001,2023-11-10_14h51.42.577,ETproject_Chi_2023.1.1,2023.1.1,60.0628736516048,
,,,,,,,,,,,,,,,,,,,,,,,,,,,,,,,,,,,,,,,,,,,,,,,,,,,,,,,,,,,,253.8461022004485,253.8461022004485,space,30.82830400019884,,,,,,,,,,,,,,,,,,,,,,,,,,,,,,,,,,,,,,,,,,,,,,,,,,,,,,,,,,,,,,,,,,,001,001,2023-11-10_14h51.42.577,ETproject_Chi_2023.1.1,2023.1.1,60.0628736516048,
8,practice,星期六,星期五,incongruent,Vert,late,up,image/Chi_late.png,"[0, 0.4]","[0, -0.4]",,,,,,,,0,0,0,0,0,0,0,7,,,,,,,,,,,,,,,,,,,,,,,,,,,,,,,,,,,,,,,284.74550599977374,284.74550599977374,space,10.2328150998801,295.05778039991856,296.0149314003065,296.0149314003065,296.0149314003065,300.63900130055845,,,,,,,,,,,,,,,,,,,,,,,,,,,,,,,,,,,,,,,,,,,,,,,,,,,,,,,,,,001,001,2023-11-10_14h51.42.577,ETproject_Chi_2023.1.1,2023.1.1,60.0628736516048,
4,practice,星期日,星期一,congruent,Vert,late,down,image/Chi_late.png,"[0, 0.4]","[0, -0.4]",,,,,,,,0,0,0,0,0,1,1,3,,,,,,,,,,,,,,,,,,,,,,,,,,,,,,,,,,,,,,,,,,,301.64860600046813,302.64627640042454,302.64627640042454,302.64627640042454,305.5286077000201,306.5328045003116,,,,,,,,,,,,,,,,,,,,,,,,,,,,,,,,,,,,,,,,,,,,,,,,,,,,,,,,,001,001,2023-11-10_14h51.42.577,ETproject_Chi_2023.1.1,2023.1.1,60.0628736516048,
1,practice,星期三 ,星期四,congruent,Hori,early,left,image/Chi_early.png,"[-0.4, 0]","[0.4, 0]",,,,,,,,0,0,0,0,0,2,2,0,,,,,,,,,,,,,,,,,,,,,,,,,,,,,,,,,,,,,,,,,,,306.5328045003116,307.5446428004652,307.5446428004652,307.5446428004652,309.1941357003525,310.19511750061065,,,,,,,,,,,,,,,,,,,,,,,,,,,,,,,,,,,,,,,,,,,,,,,,,,,,,,,,,001,001,2023-11-10_14h51.42.577,ETproject_Chi_2023.1.1,2023.1.1,60.0628736516048,
7,practice,星期三 ,星期二,incongruent,Vert,early,down,image/Chi_early.png,"[0, 0.4]","[0, -0.4]",,,,,,,,0,0,0,0,0,3,3,6,,,,,,,,,,,,,,,,,,,,,,,,,,,,,,,,,,,,,,,,,,,310.19511750061065,311.1934662004933,311.1934662004933,311.1934662004933,312.70960799977183,313.71761940047145,311.1934662004933,,,,,,,,,,,,,,,,,,,,,,,,,,,,,,,,,,,,,,,,,,,,,,,,,,,,,,,,001,001,2023-11-10_14h51.42.577,ETproject_Chi_2023.1.1,2023.1.1,60.0628736516048,
2,practice,星期五,星期六,congruent,Hori,late,right,image/Chi_late.png,"[-0.4, 0]","[0.4, 0]",,,,,,,,0,0,0,0,0,4,4,1,,,,,,,,,,,,,,,,,,,,,,,,,,,,,,,,,,,,,,,,,,,313.71761940047145,314.72568599972874,314.72568599972874,314.72568599972874,317.05819910019636,318.05900810007006,,,,,,,,,,,,,,,,,,,,,,,,,,,,,,,,,,,,,,,,,,,,,,,,,,,,,,,,,001,001,2023-11-10_14h51.42.577,ETproject_Chi_2023.1.1,2023.1.1,60.0628736516048,
6,practice,星期四,星期三 ,incongruent,Hori,late,left,image/Chi_late.png,"[-0.4, 0]","[0.4, 0]",,,,,,,,0,0,0,0,0,5,5,5,,,,,,,,,,,,,,,,,,,,,,,,,,,,,,,,,,,,,,,,,,,318.05900810007006,319.0575787005946,319.0575787005946,319.0575787005946,320.77375079970807,321.7776367003098,319.0575787005946,,,,,,,,,,,,,,,,,,,,,,,,,,,,,,,,,,,,,,,,,,,,,,,,,,,,,,,,001,001,2023-11-10_14h51.42.577,ETproject_Chi_2023.1.1,2023.1.1,60.0628736516048,
5,practice,星期二,星期一,incongruent,Hori,early,right,image/Chi_early.png,"[-0.4, 0]","[0.4, 0]",,,,,,,,0,0,0,0,0,6,6,4,,,,,,,,,,,,,,,,,,,,,,,,,,,,,,,,,,,,,,,,,,,321.7776367003098,322.7895835004747,322.7895835004747,322.7895835004747,323.6061704000458,324.6070379000157,,,,,,,,,,,,,,,,,,,,,,,,,,,,,,,,,,,,,,,,,,,,,,,,,,,,,,,,,001,001,2023-11-10_14h51.42.577,ETproject_Chi_2023.1.1,2023.1.1,60.0628736516048,
3,practice,星期一,星期二,congruent,Vert,early,up,image/Chi_early.png,"[0, 0.4]","[0, -0.4]",,,,,,,,0,0,0,0,0,7,7,2,,,,,,,,,,,,,,,,,,,,,,,,,,,,,,,,,,,,,,,,,,,324.6070379000157,325.6220142999664,325.6220142999664,325.6220142999664,326.53855879977345,327.5382237005979,,,,,,,,,,,,,,,,,,,,,,,,,,,,,,,,,,,,,,,,,,,,,,,,,,,,,,,,,001,001,2023-11-10_14h51.42.577,ETproject_Chi_2023.1.1,2023.1.1,60.0628736516048,
,,,,,,,,,,,,,,,,,,0,0,0,0,,,,,,,,,,,,,,,,,,,,,,,,,,,,,,,,,,,,,,,,,,,,,,,,,,,,,,,,,,,,,,,,,,,,,,,,,,,,,,,,,,,,,,,,,,,,,,,,,,,,,,,,,,,,,001,001,2023-11-10_14h51.42.577,ETproject_Chi_2023.1.1,2023.1.1,60.0628736516048,
,,,,,,,,,,,,,,,,,,,,,,,,,,,,,,,,,,,,,,,,,,,,,,,,,,,,,,,,,,,,,,,,,,,,,,,,,,,327.5382237005979,330.53718900028616,330.55362370051444,3.0144621999934316,334.5524407001212,334.5524407001212,space,1.6495041996240616,,,,,,,,,,,,,,,,,,,,,,,,,,,,,,,,,,,,,,,,,,,,,,,,001,001,2023-11-10_14h51.42.577,ETproject_Chi_2023.1.1,2023.1.1,60.0628736516048,
34,Month,七月,十月 ,,Vert,late,down,image/Chi_late.png,"[0, 0.4]","[0, -0.4]",3,congruent,,,,,,,,,,,,,,0,0,0,11,,,,,,,,,,,,,,,,,,,,,,,,,,,,,,,,,,,,,,,,,,,,,,,,,,,,,,336.24154460057616,1.0154909007251263,337.25127559993416,337.31803449988365,338.11776269972324,338.21776940021664,338.21776940021664,338.21776940021664,down,1,1.7842039996758103,,,,,,,,,,,,,,,,,,,,,,,,,,,,,,,,,,,,,001,001,2023-11-10_14h51.42.577,ETproject_Chi_2023.1.1,2023.1.1,60.0628736516048,
106,Week,星期三 ,星期六,,Hori,late,right,image/Chi_late.png,"[-0.4, 0]","[0.4, 0]",3,congruent,,,,,,,,,,,,,,0,1,1,3,,,,,,,,,,,,,,,,,,,,,,,,,,,,,,,,,,,,,,,,,,,,,,,,,,,,,,340.04098990000784,1.0157119994983077,341.0502228997648,341.1334464997053,341.9331775996834,342.0332156997174,342.0332156997174,342.0332156997174,right,1,1.632965600118041,,,,,,,,,,,,,,,,,,,,,,,,,,,,,,,,,,,,,001,001,2023-11-10_14h51.42.577,ETproject_Chi_2023.1.1,2023.1.1,60.0628736516048,
112,Week,星期二,星期三 ,,Vert,early,up,image/Chi_early.png,"[0, 0.4]","[0, -0.4]",1,congruent,,,,,,,,,,,,,,0,2,2,31,,,,,,,,,,,,,,,,,,,,,,,,,,,,,,,,,,,,,,,,,,,,,,,,,,,,,,343.69699000008404,1.0096014002338052,344.69914039969444,344.782313500531,345.58213090058416,345.68199599999934,345.68199599999934,345.68199599999934,down,0,1.19917649962008,,,,,,,,,,,,,,,,,,,,,,,,,,,,,,,,,,,,,001,001,2023-11-10_14h51.42.577,ETproject_Chi_2023.1.1,2023.1.1,60.0628736516048,
127,Week,星期五,星期三 ,,Hori,early,right,image/Chi_early.png,"[-0.4, 0]","[0.4, 0]",2,incongruent,,,,,,,,,,,,,,0,3,3,13,,,,,,,,,,,,,,,,,,,,,,,,,,,,,,,,,,,,,,,,,,,,,,,,,,,,,,346.9066623998806,1.0111980000510812,347.91449050046504,347.997966600582,348.797621300444,348.89772150013596,348.89772150013596,348.89772150013596,right,1,1.3280116003006697,,,,,,,,,,,,,,,,,,,,,,,,,,,,,,,,,,,,,001,001,2023-11-10_14h51.42.577,ETproject_Chi_2023.1.1,2023.1.1,60.0628736516048,
101,Week,星期五,星期日,,Hori,early,left,image/Chi_early.png,"[-0.4, 0]","[0.4, 0]",2,congruent,,,,,,,,,,,,,,0,4,4,40,,,,,,,,,,,,,,,,,,,,,,,,,,,,,,,,,,,,,,,,,,,,,,,,,,,,,,350.25463220011443,1.0117683000862598,351.2633493999019,351.3467896003276,352.1465878998861,352.24664840009063,352.24664840009063,352.24664840009063,left,1,1.6445026993751526,,,,,,,,,,,,,,,,,,,,,,,,,,,,,,,,,,,,,001,001,2023-11-10_14h51.42.577,ETproject_Chi_2023.1.1,2023.1.1,60.0628736516048,
118,Week,星期一,星期四,,Vert,late,down,image/Chi_late.png,"[0, 0.4]","[0, -0.4]",3,congruent,,,,,,,,,,,,,,0,5,5,45,,,,,,,,,,,,,,,,,,,,,,,,,,,,,,,,,,,,,,,,,,,,,,,,,,,,,,353.9282951997593,1.0140427006408572,354.9289337005466,355.01230270043015,355.81189210060984,355.911935900338,355.911935900338,355.911935900338,down,1,1.418211099691689,,,,,,,,,,,,,,,,,,,,,,,,,,,,,,,,,,,,,001,001,2023-11-10_14h51.42.577,ETproject_Chi_2023.1.1,2023.1.1,60.0628736516048,
126,Week,星期三 ,星期二,,Hori,early,right,image/Chi_early.png,"[-0.4, 0]","[0.4, 0]",1,incongruent,,,,,,,,,,,,,,0,6,6,25,,,,,,,,,,,,,,,,,,,,,,,,,,,,,,,,,,,,,,,,,,,,,,,,,,,,,,357.371240099892,1.0155957005918026,358.37778399977833,358.46100919973105,359.26093589980155,359.36094269994646,359.36094269994646,359.36094269994646,left,0,0.9924098998308182,,,,,,,,,,,,,,,,,,,,,,,,,,,,,,,,,,,,,001,001,2023-11-10_14h51.42.577,ETproject_Chi_2023.1.1,2023.1.1,60.0628736516048,
148,Week,星期六,星期三 ,,Vert,late,up,image/Chi_late.png,"[0, 0.4]","[0, -0.4]",3,incongruent,,,,,,,,,,,,,,0,7,7,26,,,,,,,,,,,,,,,,,,,,,,,,,,,,,,,,,,,,,,,,,,,,,,,,,,,,,,360.3886003997177,1.0155263999477029,361.39348680060357,361.47685359977186,362.27663279976696,362.37642430048436,362.37642430048436,362.37642430048436,down,0,1.6100228996947408,,,,,,,,,,,,,,,,,,,,,,,,,,,,,,,,,,,,,001,001,2023-11-10_14h51.42.577,ETproject_Chi_2023.1.1,2023.1.1,60.0628736516048,
46,Month,四月,一月,,Hori,late,left,image/Chi_late.png,"[-0.4, 0]","[0.4, 0]",3,incongruent,,,,,,,,,,,,,,0,8,8,14,,,,,,,,,,,,,,,,,,,,,,,,,,,,,,,,,,,,,,,,,,,,,,,,,,,,,,364.01786280050874,1.0119747007265687,365.02581110037863,365.1091280998662,365.90863450057805,366.0087630003691,366.0087630003691,366.0087630003691,left,1,2.5524418996647,,,,,,,,,,,,,,,,,,,,,,,,,,,,,,,,,,,,,001,001,2023-11-10_14h51.42.577,ETproject_Chi_2023.1.1,2023.1.1,60.0628736516048,
112,Week,星期二,星期五,,Vert,early,up,image/Chi_early.png,"[0, 0.4]","[0, -0.4]",3,congruent,,,,,,,,,,,,,,0,9,9,24,,,,,,,,,,,,,,,,,,,,,,,,,,,,,,,,,,,,,,,,,,,,,,,,,,,,,,368.60018950048834,0.9993175994604826,369.6075675999746,369.69062499981374,370.4904428003356,370.59059740044177,370.59059740044177,370.59059740044177,up,1,1.2510184990242124,,,,,,,,,,,,,,,,,,,,,,,,,,,,,,,,,,,,,001,001,2023-11-10_14h51.42.577,ETproject_Chi_2023.1.1,2023.1.1,60.0628736516048,
116,Week,星期六,星期日,,Vert,early,up,image/Chi_early.png,"[0, 0.4]","[0, -0.4]",1,congruent,,,,,,,,,,,,,,0,10,10,10,,,,,,,,,,,,,,,,,,,,,,,,,,,,,,,,,,,,,,,,,,,,,,,,,,,,,,371.88257400039583,1.0120714008808136,372.88960730005056,372.97321099974215,373.77285439986736,373.8727059001103,373.8727059001103,373.8727059001103,up,1,1.2491710996255279,,,,,,,,,,,,,,,,,,,,,,,,,,,,,,,,,,,,,001,001,2023-11-10_14h51.42.577,ETproject_Chi_2023.1.1,2023.1.1,60.0628736516048,
101,Week,星期五,星期六,,Hori,early,left,image/Chi_early.png,"[-0.4, 0]","[0.4, 0]",1,congruent,,,,,,,,,,,,,,0,11,11,42,,,,,,,,,,,,,,,,,,,,,,,,,,,,,,,,,,,,,,,,,,,,,,,,,,,,,,375.1503138002008,1.0101578002795577,376.1550297997892,376.23834860045463,377.038263800554,377.1383664002642,377.1383664002642,377.1383664002642,left,1,1.2395668998360634,,,,,,,,,,,,,,,,,,,,,,,,,,,,,,,,,,,,,001,001,2023-11-10_14h51.42.577,ETproject_Chi_2023.1.1,2023.1.1,60.0628736516048,
132,Week,星期四,星期一,,Hori,late,left,image/Chi_late.png,"[-0.4, 0]","[0.4, 0]",3,incongruent,,,,,,,,,,,,,,0,12,12,19,,,,,,,,,,,,,,,,,,,,,,,,,,,,,,,,,,,,,,,,,,,,,,,,,,,,,,378.41635430045426,1.0118019999936223,379.4208976998925,379.5041926000267,380.30378510057926,380.4038430005312,380.4038430005312,380.4038430005312,right,0,1.7493467004969716,,,,,,,,,,,,,,,,,,,,,,,,,,,,,,,,,,,,,001,001,2023-11-10_14h51.42.577,ETproject_Chi_2023.1.1,2023.1.1,60.0628736516048,
24,Month,六月,九月 ,,Vert,early,up,image/Chi_early.png,"[0, 0.4]","[0, -0.4]",3,congruent,,,,,,,,,,,,,,0,13,13,33,,,,,,,,,,,,,,,,,,,,,,,,,,,,,,,,,,,,,,,,,,,,,,,,,,,,,,382.18361730035394,1.0119166998192668,383.1863107997924,383.2695976998657,384.0695508001372,384.16930030006915,384.16930030006915,384.16930030006915,up,1,1.208032799884677,,,,,,,,,,,,,,,,,,,,,,,,,,,,,,,,,,,,,001,001,2023-11-10_14h51.42.577,ETproject_Chi_2023.1.1,2023.1.1,60.0628736516048,
23,Month,七月,十一月 ,,Vert,early,up,image/Chi_early.png,"[0, 0.4]","[0, -0.4]",4,congruent,,,,,,,,,,,,,,0,14,14,48,,,,,,,,,,,,,,,,,,,,,,,,,,,,,,,,,,,,,,,,,,,,,,,,,,,,,,385.4099457003176,1.0122962007299066,386.4186623999849,386.5018253996968,387.3015433996916,387.4016321999952,387.4016321999952,387.4016321999952,up,1,0.7123025003820658,,,,,,,,,,,,,,,,,,,,,,,,,,,,,,,,,,,,,001,001,2023-11-10_14h51.42.577,ETproject_Chi_2023.1.1,2023.1.1,60.0628736516048,
34,Month,六月,二月,,Hori,early,right,image/Chi_early.png,"[-0.4, 0]","[0.4, 0]",4,incongruent,,,,,,,,,,,,,,0,15,15,21,,,,,,,,,,,,,,,,,,,,,,,,,,,,,,,,,,,,,,,,,,,,,,,,,,,,,,388.14589709974825,1.0112565997987986,389.1508942004293,389.23427820019424,390.03407130017877,390.1340781999752,390.1340781999752,390.1340781999752,right,1,1.1889476999640465,,,,,,,,,,,,,,,,,,,,,,,,,,,,,,,,,,,,,001,001,2023-11-10_14h51.42.577,ETproject_Chi_2023.1.1,2023.1.1,60.0628736516048,
49,Month,七月,四月,,Hori,late,left,image/Chi_late.png,"[-0.4, 0]","[0.4, 0]",3,incongruent,,,,,,,,,,,,,,0,16,16,38,,,,,,,,,,,,,,,,,,,,,,,,,,,,,,,,,,,,,,,,,,,,,,,,,,,,,,391.36535540036857,1.0105138001963496,392.36655179969966,392.45008390024304,393.24967509973794,393.34955149982125,393.34955149982125,393.34955149982125,down,0,1.444637699984014,,,,,,,,,,,,,,,,,,,,,,,,,,,,,,,,,,,,,001,001,2023-11-10_14h51.42.577,ETproject_Chi_2023.1.1,2023.1.1,60.0628736516048,
62,Month,十月 ,六月,,Vert,late,up,image/Chi_late.png,"[0, 0.4]","[0, -0.4]",4,incongruent,,,,,,,,,,,,,,0,17,17,27,,,,,,,,,,,,,,,,,,,,,,,,,,,,,,,,,,,,,,,,,,,,,,,,,,,,,,395.82283650059253,1.0154748000204563,396.831684499979,396.9150782003999,397.71498010028154,397.81482640001923,397.81482640001923,397.81482640001923,up,1,2.1398452995344996,,,,,,,,,,,,,,,,,,,,,,,,,,,,,,,,,,,,,001,001,2023-11-10_14h51.42.577,ETproject_Chi_2023.1.1,2023.1.1,60.0628736516048,
78,Month,十月 ,八月,,Vert,late,up,image/Chi_late.png,"[0, 0.4]","[0, -0.4]",2,incongruent,,,,,,,,,,,,,,0,18,18,44,,,,,,,,,,,,,,,,,,,,,,,,,,,,,,,,,,,,,,,,,,,,,,,,,,,,,,399.9877677997574,1.0154323000460863,400.9972302997485,401.0803944002837,401.8802404999733,401.9801970003173,401.9801970003173,401.9801970003173,up,1,1.941508699208498,,,,,,,,,,,,,,,,,,,,,,,,,,,,,,,,,,,,,001,001,2023-11-10_14h51.42.577,ETproject_Chi_2023.1.1,2023.1.1,60.0628736516048,
38,Month,八月,十月 ,,Vert,late,down,image/Chi_late.png,"[0, 0.4]","[0, -0.4]",2,congruent,,,,,,,,,,,,,,0,19,19,37,,,,,,,,,,,,,,,,,,,,,,,,,,,,,,,,,,,,,,,,,,,,,,,,,,,,,,403.95822860021144,1.0106536000967026,404.9623894998804,405.045843699947,405.8456893004477,405.94550199992955,405.94550199992955,405.94550199992955,down,1,1.8567953994497657,,,,,,,,,,,,,,,,,,,,,,,,,,,,,,,,,,,,,001,001,2023-11-10_14h51.42.577,ETproject_Chi_2023.1.1,2023.1.1,60.0628736516048,
26,Month,六月,八月,,Vert,early,up,image/Chi_early.png,"[0, 0.4]","[0, -0.4]",2,congruent,,,,,,,,,,,,,,0,20,20,32,,,,,,,,,,,,,,,,,,,,,,,,,,,,,,,,,,,,,,,,,,,,,,,,,,,,,,407.84365110006183,1.0153836999088526,408.84451110009104,408.92794260010123,409.72751630004495,409.82750680018216,409.82750680018216,409.82750680018216,up,1,3.4384591998532414,,,,,,,,,,,,,,,,,,,,,,,,,,,,,,,,,,,,,001,001,2023-11-10_14h51.42.577,ETproject_Chi_2023.1.1,2023.1.1,60.0628736516048,
98,Week,星期二,星期三 ,,Hori,early,left,image/Chi_early.png,"[-0.4, 0]","[0.4, 0]",1,congruent,,,,,,,,,,,,,,0,21,21,49,,,,,,,,,,,,,,,,,,,,,,,,,,,,,,,,,,,,,,,,,,,,,,,,,,,,,,413.302016899921,1.0113195003941655,414.30935350060463,414.39255740027875,415.1923181004822,415.29231160040945,415.29231160040945,415.29231160040945,left,1,1.0219109999015927,,,,,,,,,,,,,,,,,,,,,,,,,,,,,,,,,,,,,001,001,2023-11-10_14h51.42.577,ETproject_Chi_2023.1.1,2023.1.1,60.0628736516048,
45,Month,九月 ,五月,,Hori,late,left,image/Chi_late.png,"[-0.4, 0]","[0.4, 0]",4,incongruent,,,,,,,,,,,,,,0,22,22,39,,,,,,,,,,,,,,,,,,,,,,,,,,,,,,,,,,,,,,,,,,,,,,,,,,,,,,416.35546430014074,1.01220649946481,417.3585355998948,417.441692000255,418.24139759968966,418.34140519984066,418.34140519984066,418.34140519984066,right,0,1.8290565991774201,,,,,,,,,,,,,,,,,,,,,,,,,,,,,,,,,,,,,001,001,2023-11-10_14h51.42.577,ETproject_Chi_2023.1.1,2023.1.1,60.0628736516048,
16,Month,六月,八月,,Hori,late,right,image/Chi_late.png,"[-0.4, 0]","[0.4, 0]",2,congruent,,,,,,,,,,,,,,0,23,23,30,,,,,,,,,,,,,,,,,,,,,,,,,,,,,,,,,,,,,,,,,,,,,,,,,,,,,,420.19883160013705,1.0124988006427884,421.2073370004073,421.290534700267,422.09024970047176,422.19009479973465,422.19009479973465,422.19009479973465,right,1,1.8517250996083021,,,,,,,,,,,,,,,,,,,,,,,,,,,,,,,,,,,,,001,001,2023-11-10_14h51.42.577,ETproject_Chi_2023.1.1,2023.1.1,60.0628736516048,
107,Week,星期四,星期六,,Hori,late,right,image/Chi_late.png,"[-0.4, 0]","[0.4, 0]",2,congruent,,,,,,,,,,,,,,0,24,24,16,,,,,,,,,,,,,,,,,,,,,,,,,,,,,,,,,,,,,,,,,,,,,,,,,,,,,,424.08151079993695,1.0111552998423576,425.08909680042416,425.17268460057676,425.97207359969616,426.0720734000206,426.0720734000206,426.0720734000206,right,1,1.4661936005577445,,,,,,,,,,,,,,,,,,,,,,,,,,,,,,,,,,,,,001,001,2023-11-10_14h51.42.577,ETproject_Chi_2023.1.1,2023.1.1,60.0628736516048,
6,Month,六月,十月 ,,Hori,early,left,image/Chi_early.png,"[-0.4, 0]","[0.4, 0]",4,congruent,,,,,,,,,,,,,,0,25,25,29,,,,,,,,,,,,,,,,,,,,,,,,,,,,,,,,,,,,,,,,,,,,,,,,,,,,,,427.57531039975584,1.0108848996460438,428.58804429974407,428.6547001004219,429.45444270037115,429.5543640004471,429.5543640004471,429.5543640004471,left,1,0.8953940998762846,,,,,,,,,,,,,,,,,,,,,,,,,,,,,,,,,,,,,001,001,2023-11-10_14h51.42.577,ETproject_Chi_2023.1.1,2023.1.1,60.0628736516048,
77,Month,九月 ,七月,,Vert,late,up,image/Chi_late.png,"[0, 0.4]","[0, -0.4]",2,incongruent,,,,,,,,,,,,,,0,26,26,43,,,,,,,,,,,,,,,,,,,,,,,,,,,,,,,,,,,,,,,,,,,,,,,,,,,,,,430.4853514004499,1.011374999769032,431.4870260003954,431.57044090051204,432.36997270025313,432.47006640024483,432.47006640024483,432.47006640024483,up,1,0.8990623997524381,,,,,,,,,,,,,,,,,,,,,,,,,,,,,,,,,,,,,001,001,2023-11-10_14h51.42.577,ETproject_Chi_2023.1.1,2023.1.1,60.0628736516048,
125,Week,星期三 ,星期一,,Hori,early,right,image/Chi_early.png,"[-0.4, 0]","[0.4, 0]",2,incongruent,,,,,,,,,,,,,,0,27,27,5,,,,,,,,,,,,,,,,,,,,,,,,,,,,,,,,,,,,,,,,,,,,,,,,,,,,,,433.39917939994484,1.0113663002848625,434.4027299005538,434.486150899902,435.2857237001881,435.38584970030934,435.38584970030934,435.38584970030934,right,1,1.391686899587512,,,,,,,,,,,,,,,,,,,,,,,,,,,,,,,,,,,,,001,001,2023-11-10_14h51.42.577,ETproject_Chi_2023.1.1,2023.1.1,60.0628736516048,
150,Week,星期日,星期五,,Vert,late,up,image/Chi_late.png,"[0, 0.4]","[0, -0.4]",2,incongruent,,,,,,,,,,,,,,0,28,28,46,,,,,,,,,,,,,,,,,,,,,,,,,,,,,,,,,,,,,,,,,,,,,,,,,,,,,,436.81860370002687,1.0099828001111746,437.81835629977286,437.90151329990476,438.701312799938,438.8012743005529,438.8012743005529,438.8012743005529,up,1,1.4010038990527391,,,,,,,,,,,,,,,,,,,,,,,,,,,,,,,,,,,,,001,001,2023-11-10_14h51.42.577,ETproject_Chi_2023.1.1,2023.1.1,60.0628736516048,
75,Month,十月 ,九月 ,,Vert,early,down,image/Chi_early.png,"[0, 0.4]","[0, -0.4]",1,incongruent,,,,,,,,,,,,,,0,29,29,1,,,,,,,,,,,,,,,,,,,,,,,,,,,,,,,,,,,,,,,,,,,,,,,,,,,,,,440.2603091998026,1.0099360002204776,441.2671258999035,441.3337249001488,442.13351310044527,442.2335433997214,442.2335433997214,442.2335433997214,down,1,1.231561099179089,,,,,,,,,,,,,,,,,,,,,,,,,,,,,,,,,,,,,001,001,2023-11-10_14h51.42.577,ETproject_Chi_2023.1.1,2023.1.1,60.0628736516048,
120,Week,星期三 ,星期六,,Vert,late,down,image/Chi_late.png,"[0, 0.4]","[0, -0.4]",3,congruent,,,,,,,,,,,,,,0,30,30,34,,,,,,,,,,,,,,,,,,,,,,,,,,,,,,,,,,,,,,,,,,,,,,,,,,,,,,443.49935370031744,1.0134161999449134,444.49927069991827,444.5826995000243,445.3824861999601,445.48245420027524,445.48245420027524,445.48245420027524,down,1,1.447065300308168,,,,,,,,,,,,,,,,,,,,,,,,,,,,,,,,,,,,,001,001,2023-11-10_14h51.42.577,ETproject_Chi_2023.1.1,2023.1.1,60.0628736516048,
114,Week,星期四,星期日,,Vert,early,up,image/Chi_early.png,"[0, 0.4]","[0, -0.4]",3,congruent,,,,,,,,,,,,,,0,31,31,12,,,,,,,,,,,,,,,,,,,,,,,,,,,,,,,,,,,,,,,,,,,,,,,,,,,,,,447.95673900004476,1.015097800642252,448.9645170997828,449.0478256000206,449.8477690005675,449.9476338997483,449.9476338997483,449.9476338997483,up,1,1.525386299006641,,,,,,,,,,,,,,,,,,,,,,,,,,,,,,,,,,,,,001,001,2023-11-10_14h51.42.577,ETproject_Chi_2023.1.1,2023.1.1,60.0628736516048,
99,Week,星期三 ,星期六,,Hori,early,left,image/Chi_early.png,"[-0.4, 0]","[0.4, 0]",3,congruent,,,,,,,,,,,,,,0,32,32,6,,,,,,,,,,,,,,,,,,,,,,,,,,,,,,,,,,,,,,,,,,,,,,,,,,,,,,451.50812069978565,1.0103342002257705,452.5133292004466,452.59681690018624,453.3964755004272,453.49658290017396,453.49658290017396,453.49658290017396,left,1,0.8564815996214747,,,,,,,,,,,,,,,,,,,,,,,,,,,,,,,,,,,,,001,001,2023-11-10_14h51.42.577,ETproject_Chi_2023.1.1,2023.1.1,60.0628736516048,
50,Month,八月,五月,,Hori,late,left,image/Chi_late.png,"[-0.4, 0]","[0.4, 0]",3,incongruent,,,,,,,,,,,,,,0,33,33,35,,,,,,,,,,,,,,,,,,,,,,,,,,,,,,,,,,,,,,,,,,,,,,,,,,,,,,454.39586609974504,1.0117957005277276,455.3960464000702,455.4791649002582,456.278781699948,456.3789237998426,456.3789237998426,456.3789237998426,right,0,1.031471399590373,,,,,,,,,,,,,,,,,,,,,,,,,,,,,,,,,,,,,001,001,2023-11-10_14h51.42.577,ETproject_Chi_2023.1.1,2023.1.1,60.0628736516048,
13,Month,四月,七月,,Hori,late,right,image/Chi_late.png,"[-0.4, 0]","[0.4, 0]",3,congruent,,,,,,,,,,,,,,0,34,34,41,,,,,,,,,,,,,,,,,,,,,,,,,,,,,,,,,,,,,,,,,,,,,,,,,,,,,,457.4337801998481,0.9991264995187521,458.44486969988793,458.5283478004858,459.3281650003046,459.42787250038236,459.42787250038236,459.42787250038236,right,1,1.0303295999765396,,,,,,,,,,,,,,,,,,,,,,,,,,,,,,,,,,,,,001,001,2023-11-10_14h51.42.577,ETproject_Chi_2023.1.1,2023.1.1,60.0628736516048,
142,Week,星期五,星期四,,Vert,early,down,image/Chi_early.png,"[0, 0.4]","[0, -0.4]",1,incongruent,,,,,,,,,,,,,,0,35,35,0,,,,,,,,,,,,,,,,,,,,,,,,,,,,,,,,,,,,,,,,,,,,,,,,,,,,,,460.49262430053204,1.0106196999549866,461.4937236001715,461.5772085003555,462.3768702996895,462.4769735997543,462.4769735997543,462.4769735997543,down,1,1.1412311997264624,,,,,,,,,,,,,,,,,,,,,,,,,,,,,,,,,,,,,001,001,2023-11-10_14h51.42.577,ETproject_Chi_2023.1.1,2023.1.1,60.0628736516048,
24,Month,四月,六月,,Vert,early,up,image/Chi_early.png,"[0, 0.4]","[0, -0.4]",2,congruent,,,,,,,,,,,,,,0,36,36,8,,,,,,,,,,,,,,,,,,,,,,,,,,,,,,,,,,,,,,,,,,,,,,,,,,,,,,464.64870550017804,1.0147695001214743,465.6590648004785,465.7423817999661,466.5422090999782,466.6421125000343,466.6421125000343,466.6421125000343,up,1,0.9991228003054857,,,,,,,,,,,,,,,,,,,,,,,,,,,,,,,,,,,,,001,001,2023-11-10_14h51.42.577,ETproject_Chi_2023.1.1,2023.1.1,60.0628736516048,
143,Week,星期六,星期五,,Vert,early,down,image/Chi_early.png,"[0, 0.4]","[0, -0.4]",1,incongruent,,,,,,,,,,,,,,0,37,37,36,,,,,,,,,,,,,,,,,,,,,,,,,,,,,,,,,,,,,,,,,,,,,,,,,,,,,,467.66972739994526,1.0103505002334714,468.6747855003923,468.7581550003961,469.55792490020394,469.65802159998566,469.65802159998566,469.65802159998566,down,1,0.9357214001938701,,,,,,,,,,,,,,,,,,,,,,,,,,,,,,,,,,,,,001,001,2023-11-10_14h51.42.577,ETproject_Chi_2023.1.1,2023.1.1,60.0628736516048,
150,Week,星期六,星期五,,Vert,late,up,image/Chi_late.png,"[0, 0.4]","[0, -0.4]",1,incongruent,,,,,,,,,,,,,,0,38,38,23,,,,,,,,,,,,,,,,,,,,,,,,,,,,,,,,,,,,,,,,,,,,,,,,,,,,,,470.6337969005108,1.0114358002319932,471.6404571002349,471.7238141000271,472.52355640009046,472.6235754005611,472.6235754005611,472.6235754005611,up,1,1.2423726990818977,,,,,,,,,,,,,,,,,,,,,,,,,,,,,,,,,,,,,001,001,2023-11-10_14h51.42.577,ETproject_Chi_2023.1.1,2023.1.1,60.0628736516048,
59,Month,七月,三月,,Vert,late,up,image/Chi_late.png,"[0, 0.4]","[0, -0.4]",4,incongruent,,,,,,,,,,,,,,0,39,39,47,,,,,,,,,,,,,,,,,,,,,,,,,,,,,,,,,,,,,,,,,,,,,,,,,,,,,,474.8958497000858,1.0151845002546906,475.90557530056685,475.98933110013604,476.7886810004711,476.8885181006044,476.8885181006044,476.8885181006044,up,1,0.9223788995295763,,,,,,,,,,,,,,,,,,,,,,,,,,,,,,,,,,,,,001,001,2023-11-10_14h51.42.577,ETproject_Chi_2023.1.1,2023.1.1,60.0628736516048,
141,Week,星期五,星期三 ,,Vert,early,down,image/Chi_early.png,"[0, 0.4]","[0, -0.4]",2,incongruent,,,,,,,,,,,,,,0,40,40,15,,,,,,,,,,,,,,,,,,,,,,,,,,,,,,,,,,,,,,,,,,,,,,,,,,,,,,477.854129999876,1.0118901003152132,478.85466710012406,478.9380545001477,479.73784810025245,479.83776670042425,479.83776670042425,479.83776670042425,down,1,1.0036060996353626,,,,,,,,,,,,,,,,,,,,,,,,,,,,,,,,,,,,,001,001,2023-11-10_14h51.42.577,ETproject_Chi_2023.1.1,2023.1.1,60.0628736516048,
20,Month,四月,八月,,Vert,early,up,image/Chi_early.png,"[0, 0.4]","[0, -0.4]",4,congruent,,,,,,,,,,,,,,0,41,41,4,,,,,,,,,,,,,,,,,,,,,,,,,,,,,,,,,,,,,,,,,,,,,,,,,,,,,,480.88034529984,1.0113660003989935,481.8871020004153,481.9703174000606,482.77007760014385,482.87013110052794,482.87013110052794,482.87013110052794,up,1,1.1794940000399947,,,,,,,,,,,,,,,,,,,,,,,,,,,,,,,,,,,,,001,001,2023-11-10_14h51.42.577,ETproject_Chi_2023.1.1,2023.1.1,60.0628736516048,
1,Month,一月,二月 ,,Hori,early,left,image/Chi_early.png,"[-0.4, 0]","[0.4, 0]",1,congruent,,,,,,,,,,,,,,0,42,42,28,,,,,,,,,,,,,,,,,,,,,,,,,,,,,,,,,,,,,,,,,,,,,,,,,,,,,,484.0752947004512,1.0152865005657077,485.0860326997936,485.1691877003759,485.96906740032136,486.06900550052524,486.06900550052524,486.06900550052524,left,1,0.7491376996040344,,,,,,,,,,,,,,,,,,,,,,,,,,,,,,,,,,,,,001,001,2023-11-10_14h51.42.577,ETproject_Chi_2023.1.1,2023.1.1,60.0628736516048,
63,Month,十二月,九月 ,,Vert,early,down,image/Chi_early.png,"[0, 0.4]","[0, -0.4]",3,incongruent,,,,,,,,,,,,,,0,43,43,22,,,,,,,,,,,,,,,,,,,,,,,,,,,,,,,,,,,,,,,,,,,,,,,,,,,,,,486.84758369997144,1.0095854001119733,487.85182220023125,487.9352238001302,488.7349672000855,488.8347808001563,488.8347808001563,488.8347808001563,down,1,1.3594663003459573,,,,,,,,,,,,,,,,,,,,,,,,,,,,,,,,,,,,,001,001,2023-11-10_14h51.42.577,ETproject_Chi_2023.1.1,2023.1.1,60.0628736516048,
136,Week,星期日,星期五,,Hori,late,left,image/Chi_late.png,"[-0.4, 0]","[0.4, 0]",2,incongruent,,,,,,,,,,,,,,0,44,44,17,,,,,,,,,,,,,,,,,,,,,,,,,,,,,,,,,,,,,,,,,,,,,,,,,,,,,,490.2285257996991,1.0146158998832107,491.2338880999014,491.3173815002665,492.116967599839,492.21705109998584,492.21705109998584,492.21705109998584,left,1,1.3843808993697166,,,,,,,,,,,,,,,,,,,,,,,,,,,,,,,,,,,,,001,001,2023-11-10_14h51.42.577,ETproject_Chi_2023.1.1,2023.1.1,60.0628736516048,
12,Week,星期日,星期四,,Vert,late,up,image/Chi_late.png,"[0, 0.4]","[0, -0.4]",3,incongruent,,,,,,,,,,,,,,0,45,45,9,,,,,,,,,,,,,,,,,,,,,,,,,,,,,,,,,,,,,,,,,,,,,,,,,,,,,,493.64019270054996,0.9993133991956711,494.6495727999136,494.73269159998745,495.5325156999752,495.632505800575,495.632505800575,495.632505800575,up,1,0.8900148002430797,,,,,,,,,,,,,,,,,,,,,,,,,,,,,,,,,,,,,001,001,2023-11-10_14h51.42.577,ETproject_Chi_2023.1.1,2023.1.1,60.0628736516048,
29,Month,七月,八月,,Vert,early,up,image/Chi_early.png,"[0, 0.4]","[0, -0.4]",1,congruent,,,,,,,,,,,,,,0,46,46,2,,,,,,,,,,,,,,,,,,,,,,,,,,,,,,,,,,,,,,,,,,,,,,,,,,,,,,496.5602647000924,1.0145778004080057,497.5651230001822,497.64845409989357,498.44830510020256,498.54833019990474,498.54833019990474,498.54833019990474,down,0,0.9742446998134255,,,,,,,,,,,,,,,,,,,,,,,,,,,,,,,,,,,,,001,001,2023-11-10_14h51.42.577,ETproject_Chi_2023.1.1,2023.1.1,60.0628736516048,
139,Week,星期四,星期一,,Vert,early,down,image/Chi_early.png,"[0, 0.4]","[0, -0.4]",3,incongruent,,,,,,,,,,,,,,0,47,47,7,,,,,,,,,,,,,,,,,,,,,,,,,,,,,,,,,,,,,,,,,,,,,,,,,,,,,,499.55533669982105,1.012839000672102,500.5642453003675,500.64752889983356,501.4473258005455,501.5471779005602,501.5471779005602,501.5471779005602,down,1,1.0220806999132037,,,,,,,,,,,,,,,,,,,,,,,,,,,,,,,,,,,,,001,001,2023-11-10_14h51.42.577,ETproject_Chi_2023.1.1,2023.1.1,60.0628736516048,
97,Week,星期一,星期四,,Hori,early,left,image/Chi_early.png,"[-0.4, 0]","[0.4, 0]",3,congruent,,,,,,,,,,,,,,0,48,48,20,,,,,,,,,,,,,,,,,,,,,,,,,,,,,,,,,,,,,,,,,,,,,,,,,,,,,,502.60546729993075,1.0119210993871093,503.61320160049945,503.6966700004414,504.49623399972916,504.59636399988085,504.59636399988085,504.59636399988085,left,1,0.9331678003072739,,,,,,,,,,,,,,,,,,,,,,,,,,,,,,,,,,,,,001,001,2023-11-10_14h51.42.577,ETproject_Chi_2023.1.1,2023.1.1,60.0628736516048,
58,Month,六月,二月,,Vert,late,up,image/Chi_late.png,"[0, 0.4]","[0, -0.4]",4,incongruent,,,,,,,,,,,,,,0,49,49,18,,,,,,,,,,,,,,,,,,,,,,,,,,,,,,,,,,,,,,,,,,,,,,,,,,,,,,505.56027169991285,1.0125112999230623,506.5621912004426,506.64550879970193,507.44547520019114,507.5452439999208,507.5452439999208,507.5452439999208,up,1,1.6800077995285392,,,,,,,,,,,,,,,,,,,,,,,,,,,,,,,,,,,,,001,001,2023-11-10_14h51.42.577,ETproject_Chi_2023.1.1,2023.1.1,60.0628736516048,
,,,,,,,,,,,,,,,,,,,,,,,,,,,,,,,,,,,,,,,,,,,,,,,,,,,,,,,,,,,,,,,,,,,,,,,,,,,,,,,,,,,,,,,,,,,,,,510.23485440015793,510.23485440015793,space,11.61501850001514,,,,,,,,,,,,,,,,,,,,,,,,,,,,,,,,,001,001,2023-11-10_14h51.42.577,ETproject_Chi_2023.1.1,2023.1.1,60.0628736516048,
,,,,,,,,,,,,,Spring 6.jpg,这是春天吗？,是,Left,Break_material/Image/Spring 6.jpg,,,,,,,,,,,,,0,0,0,5,,,,,,,,,,,,,,,,,,,,,,,,,,,,,,,,,,,,,,,,,,,,,,,,,,,,,,,,,,,,,,,,,522.5964085999876,525.8608172005042,526.6056310003623,527.8719741003588,527.8719741003588,527.8719741003588,527.8719741003588,None,0,,,,,,,,,,,,,,,,,,,,,,,,001,001,2023-11-10_14h51.42.577,ETproject_Chi_2023.1.1,2023.1.1,60.0628736516048,
,,,,,,,,,,,,,Spring 3.jpg,这是夏天吗？,否,Right,Break_material/Image/Spring 3.jpg,,,,,,,,,,,,,0,1,1,2,,,,,,,,,,,,,,,,,,,,,,,,,,,,,,,,,,,,,,,,,,,,,,,,,,,,,,,,,,,,,,,,,533.1700355997309,536.8725073998794,537.1687059001997,538.8850666005164,538.8684378005564,538.8684378005564,538.8684378005564,left,0,0.6850908994674683,,,,,,,,,,,,,,,,,,,,,,,001,001,2023-11-10_14h51.42.577,ETproject_Chi_2023.1.1,2023.1.1,60.0628736516048,
,,,,,,,,,,,,,Spring 4.jpg,这是秋天吗？,否,Right,Break_material/Image/Spring 4.jpg,,,,,,,,,,,,,0,2,2,3,,,,,,,,,,,,,,,,,,,,,,,,,,,,,,,,,,,,,,,,,,,,,,,,,,,,,,,,,,,,,,,,,539.8054120000452,543.5710037006065,543.8166698003188,545.5828943001106,545.5828943001106,545.5828943001106,545.5828943001106,right,0,0.9862924991175532,,,,,,,,,,,,,,,,,,,,,,,001,001,2023-11-10_14h51.42.577,ETproject_Chi_2023.1.1,2023.1.1,60.0628736516048,
,,,,,,,,,,,,,Spring 5.jpg,这是冬天吗？,否,Right,Break_material/Image/Spring 5.jpg,,,,,,,,,,,,,0,3,3,4,,,,,,,,,,,,,,,,,,,,,,,,,,,,,,,,,,,,,,,,,,,,,,,,,,,,,,,,,,,,,,,,,547.0832511000335,550.5860430002213,551.0810134997591,552.5972562003881,552.5972562003881,552.5972562003881,552.5972562003881,right,0,0.12510939966887236,,,,,,,,,,,,,,,,,,,,,,,001,001,2023-11-10_14h51.42.577,ETproject_Chi_2023.1.1,2023.1.1,60.0628736516048,
,,,,,,,,,,,,,Spring 2.jpg,这是冬天吗？,否,Right,Break_material/Image/Spring 2.jpg,,,,,,,,,,,,,0,4,4,1,,,,,,,,,,,,,,,,,,,,,,,,,,,,,,,,,,,,,,,,,,,,,,,,,,,,,,,,,,,,,,,,,552.9707145001739,556.7330919997767,556.9790083002299,558.7452079001814,558.7452079001814,558.7452079001814,558.7452079001814,right,0,0.8891845997422934,,,,,,,,,,,,,,,,,,,,,,,001,001,2023-11-10_14h51.42.577,ETproject_Chi_2023.1.1,2023.1.1,60.0628736516048,
,,,,,,,,,,,,,Spring 1.jpg,这是春天吗？,是,Left,Break_material/Image/Spring 1.jpg,,,,,,,,,,,,,0,5,5,0,,,,,,,,,,,,,,,,,,,,,,,,,,,,,,,,,,,,,,,,,,,,,,,,,,,,,,,,,,,,,,,,,559.7127531003207,563.647178299725,563.7101167999208,565.6595424003899,565.6595424003899,565.6595424003899,565.6595424003899,left,0,0.3588819997385144,,,,,,,,,,,,,,,,,,,,,,,001,001,2023-11-10_14h51.42.577,ETproject_Chi_2023.1.1,2023.1.1,60.0628736516048,
,,,,,,,,,,,,,,,,,,,,,,,,,,,,,,,,,,,,,,,,,,,,,,,,,,,,,,,,,,,,,,,,,,,,,,,,,,,,,,,,,,,,,,,,,,,,,,,,,,,,,,,,,,,,566.0427301004529,566.0427301004529,space,2.8071149000898004,,,,,,,,,,,,,,,,,,,001,001,2023-11-10_14h51.42.577,ETproject_Chi_2023.1.1,2023.1.1,60.0628736516048,
21,Month,十月 ,十一月 ,,Hori,late,right,image/Chi_late.png,"[-0.4, 0]","[0.4, 0]",1,congruent,,,,,,,,,,,,,,,,,,,,,,0,0,0,5,,,,,,,,,,,,,,,,,,,,,,,,,,,,,,,,,,,,,,,,,,,,,,568.8883512001485,0.9991343999281526,569.8912246003747,569.9747790005058,570.7743541998789,570.8743911003694,570.8743911003694,570.8743911003694,right,1,2.039685900323093,,,,,,,,,,,,,,,,,,,,,,,,,,,,,,,,,,,,,001,001,2023-11-10_14h51.42.577,ETproject_Chi_2023.1.1,2023.1.1,60.0628736516048,
82,Month,六月,五月,,Vert,late,up,image/Chi_late.png,"[0, 0.4]","[0, -0.4]",1,incongruent,,,,,,,,,,,,,,,,,,,,,,0,1,1,33,,,,,,,,,,,,,,,,,,,,,,,,,,,,,,,,,,,,,,,,,,,,,,572.9589205998927,1.0104704005643725,573.9733814001083,574.0399679997936,574.8398336004466,574.9396518003196,574.9396518003196,574.9396518003196,up,1,1.1821397989988327,,,,,,,,,,,,,,,,,,,,,,,,,,,,,,,,,,,,,001,001,2023-11-10_14h51.42.577,ETproject_Chi_2023.1.1,2023.1.1,60.0628736516048,
18,Month,九月 ,十二月,,Hori,late,right,image/Chi_late.png,"[-0.4, 0]","[0.4, 0]",3,congruent,,,,,,,,,,,,,,,,,,,,,,0,2,2,9,,,,,,,,,,,,,,,,,,,,,,,,,,,,,,,,,,,,,,,,,,,,,,576.1435229005292,1.0156946005299687,577.1556996004656,577.2390171000734,578.038646900095,578.1387529997155,578.1387529997155,578.1387529997155,right,1,0.7596125993877649,,,,,,,,,,,,,,,,,,,,,,,,,,,,,,,,,,,,,001,001,2023-11-10_14h51.42.577,ETproject_Chi_2023.1.1,2023.1.1,60.0628736516048,
126,Week,星期五,星期二,,Hori,early,right,image/Chi_early.png,"[-0.4, 0]","[0.4, 0]",3,incongruent,,,,,,,,,,,,,,,,,,,,,,0,3,3,17,,,,,,,,,,,,,,,,,,,,,,,,,,,,,,,,,,,,,,,,,,,,,,578.9345543999225,1.0139656998217106,579.938175899908,580.0212783003226,580.8210188001394,580.9209930002689,580.9209930002689,580.9209930002689,right,1,1.184592799283564,,,,,,,,,,,,,,,,,,,,,,,,,,,,,,,,,,,,,001,001,2023-11-10_14h51.42.577,ETproject_Chi_2023.1.1,2023.1.1,60.0628736516048,
102,Week,星期六,星期日,,Hori,early,left,image/Chi_early.png,"[-0.4, 0]","[0.4, 0]",1,congruent,,,,,,,,,,,,,,,,,,,,,,0,4,4,15,,,,,,,,,,,,,,,,,,,,,,,,,,,,,,,,,,,,,,,,,,,,,,582.1465769000351,1.0107164001092315,583.1536399004981,583.2371075004339,584.03674650006,584.1365876998752,584.1365876998752,584.1365876998752,left,1,0.8333967998623848,,,,,,,,,,,,,,,,,,,,,,,,,,,,,,,,,,,,,001,001,2023-11-10_14h51.42.577,ETproject_Chi_2023.1.1,2023.1.1,60.0628736516048,
14,Month,四月,六月,,Hori,late,right,image/Chi_late.png,"[-0.4, 0]","[0.4, 0]",2,congruent,,,,,,,,,,,,,,,,,,,,,,0,5,5,26,,,,,,,,,,,,,,,,,,,,,,,,,,,,,,,,,,,,,,,,,,,,,,585.0037297001109,1.0108509007841349,586.0026364000514,586.0860673002899,586.8858085004613,586.9857668001205,586.9857668001205,586.9857668001205,right,1,1.0888713002204895,,,,,,,,,,,,,,,,,,,,,,,,,,,,,,,,,,,,,001,001,2023-11-10_14h51.42.577,ETproject_Chi_2023.1.1,2023.1.1,60.0628736516048,
55,Month,四月,一月,,Vert,early,down,image/Chi_early.png,"[0, 0.4]","[0, -0.4]",3,incongruent,,,,,,,,,,,,,,,,,,,,,,0,6,6,22,,,,,,,,,,,,,,,,,,,,,,,,,,,,,,,,,,,,,,,,,,,,,,588.1115252999589,1.0121660996228456,589.1184930996969,589.201594600454,590.0013687005267,590.1015245998278,590.1015245998278,590.1015245998278,down,1,1.1244807997718453,,,,,,,,,,,,,,,,,,,,,,,,,,,,,,,,,,,,,001,001,2023-11-10_14h51.42.577,ETproject_Chi_2023.1.1,2023.1.1,60.0628736516048,
108,Week,星期五,星期六,,Hori,late,right,image/Chi_late.png,"[-0.4, 0]","[0.4, 0]",1,congruent,,,,,,,,,,,,,,,,,,,,,,0,7,7,1,,,,,,,,,,,,,,,,,,,,,,,,,,,,,,,,,,,,,,,,,,,,,,591.2656391998753,1.0121998004615307,592.2674484001473,592.3505226997659,593.1503662997857,593.2502604005858,593.2502604005858,593.2502604005858,right,1,1.4635586999356747,,,,,,,,,,,,,,,,,,,,,,,,,,,,,,,,,,,,,001,001,2023-11-10_14h51.42.577,ETproject_Chi_2023.1.1,2023.1.1,60.0628736516048,
123,Week,星期六,星期日,,Vert,late,down,image/Chi_late.png,"[0, 0.4]","[0, -0.4]",1,congruent,,,,,,,,,,,,,,,,,,,,,,0,8,8,31,,,,,,,,,,,,,,,,,,,,,,,,,,,,,,,,,,,,,,,,,,,,,,594.7389748999849,1.014775900170207,595.749494000338,595.8329124003649,596.6325757000595,596.7324943998829,596.7324943998829,596.7324943998829,up,0,1.2298138998448849,,,,,,,,,,,,,,,,,,,,,,,,,,,,,,,,,,,,,001,001,2023-11-10_14h51.42.577,ETproject_Chi_2023.1.1,2023.1.1,60.0628736516048,
26,Month,八月,十一月 ,,Vert,early,up,image/Chi_early.png,"[0, 0.4]","[0, -0.4]",3,congruent,,,,,,,,,,,,,,,,,,,,,,0,9,9,44,,,,,,,,,,,,,,,,,,,,,,,,,,,,,,,,,,,,,,,,,,,,,,597.9912523003295,1.014029299840331,598.9983016001061,599.081756000407,599.8815566999838,599.9814010998234,599.9814010998234,599.9814010998234,up,1,2.3170657996088266,,,,,,,,,,,,,,,,,,,,,,,,,,,,,,,,,,,,,001,001,2023-11-10_14h51.42.577,ETproject_Chi_2023.1.1,2023.1.1,60.0628736516048,
39,Month,九月 ,十一月 ,,Vert,late,down,image/Chi_late.png,"[0, 0.4]","[0, -0.4]",2,congruent,,,,,,,,,,,,,,,,,,,,,,0,10,10,14,,,,,,,,,,,,,,,,,,,,,,,,,,,,,,,,,,,,,,,,,,,,,,602.3395328000188,1.0131136998534203,603.3470435002819,603.430393400602,604.2301187003031,604.3300851006061,604.3300851006061,604.3300851006061,down,1,1.024040399119258,,,,,,,,,,,,,,,,,,,,,,,,,,,,,,,,,,,,,001,001,2023-11-10_14h51.42.577,ETproject_Chi_2023.1.1,2023.1.1,60.0628736516048,
16,Month,八月,十二月,,Hori,late,right,image/Chi_late.png,"[-0.4, 0]","[0.4, 0]",4,congruent,,,,,,,,,,,,,,,,,,,,,,0,11,11,27,,,,,,,,,,,,,,,,,,,,,,,,,,,,,,,,,,,,,,,,,,,,,,605.3903715005144,1.0118610998615623,606.3960797004402,606.4794057002291,607.2790023004636,607.3790214005858,607.3790214005858,607.3790214005858,right,1,1.0159775000065565,,,,,,,,,,,,,,,,,,,,,,,,,,,,,,,,,,,,,001,001,2023-11-10_14h51.42.577,ETproject_Chi_2023.1.1,2023.1.1,60.0628736516048,
4,Month,四月,六月,,Hori,early,left,image/Chi_early.png,"[-0.4, 0]","[0.4, 0]",2,congruent,,,,,,,,,,,,,,,,,,,,,,0,12,12,20,,,,,,,,,,,,,,,,,,,,,,,,,,,,,,,,,,,,,,,,,,,,,,608.423467900604,1.0110963005572557,609.4285960001871,609.511483900249,610.3112674001604,610.4112819004804,610.4112819004804,610.4112819004804,left,1,1.006759099662304,,,,,,,,,,,,,,,,,,,,,,,,,,,,,,,,,,,,,001,001,2023-11-10_14h51.42.577,ETproject_Chi_2023.1.1,2023.1.1,60.0628736516048,
42,Month,九月 ,十月 ,,Vert,late,down,image/Chi_late.png,"[0, 0.4]","[0, -0.4]",1,congruent,,,,,,,,,,,,,,,,,,,,,,0,13,13,0,,,,,,,,,,,,,,,,,,,,,,,,,,,,,,,,,,,,,,,,,,,,,,611.4569410998374,1.0108326002955437,612.4605325004086,612.5439386004582,613.3436992000788,613.4437261000276,613.4437261000276,613.4437261000276,down,1,0.9342842996120453,,,,,,,,,,,,,,,,,,,,,,,,,,,,,,,,,,,,,001,001,2023-11-10_14h51.42.577,ETproject_Chi_2023.1.1,2023.1.1,60.0628736516048,
84,Month,八月,七月,,Vert,late,up,image/Chi_late.png,"[0, 0.4]","[0, -0.4]",1,incongruent,,,,,,,,,,,,,,,,,,,,,,0,14,14,18,,,,,,,,,,,,,,,,,,,,,,,,,,,,,,,,,,,,,,,,,,,,,,614.4189212005585,1.0113639999181032,615.4263348998502,615.5098043996841,616.3092847000808,616.4094085004181,616.4094085004181,616.4094085004181,up,1,1.4324281997978687,,,,,,,,,,,,,,,,,,,,,,,,,,,,,,,,,,,,,001,001,2023-11-10_14h51.42.577,ETproject_Chi_2023.1.1,2023.1.1,60.0628736516048,
72,Month,四月,二月,,Vert,late,up,image/Chi_late.png,"[0, 0.4]","[0, -0.4]",2,incongruent,,,,,,,,,,,,,,,,,,,,,,0,15,15,41,,,,,,,,,,,,,,,,,,,,,,,,,,,,,,,,,,,,,,,,,,,,,,617.8681418998167,1.0114013003185391,618.8751792004332,618.9586201999336,619.7583605004475,619.8583837002516,619.8583837002516,619.8583837002516,up,1,0.9761377992108464,,,,,,,,,,,,,,,,,,,,,,,,,,,,,,,,,,,,,001,001,2023-11-10_14h51.42.577,ETproject_Chi_2023.1.1,2023.1.1,60.0628736516048,
142,Week,星期日,星期四,,Vert,early,down,image/Chi_early.png,"[0, 0.4]","[0, -0.4]",3,incongruent,,,,,,,,,,,,,,,,,,,,,,0,16,16,35,,,,,,,,,,,,,,,,,,,,,,,,,,,,,,,,,,,,,,,,,,,,,,620.8738061999902,1.0128846000880003,621.8742839004844,621.9575300002471,622.7573151998222,622.8572128005326,622.8572128005326,622.8572128005326,up,0,1.3198217004537582,,,,,,,,,,,,,,,,,,,,,,,,,,,,,,,,,,,,,001,001,2023-11-10_14h51.42.577,ETproject_Chi_2023.1.1,2023.1.1,60.0628736516048,
10,Month,二月,六月,,Hori,late,right,image/Chi_late.png,"[-0.4, 0]","[0.4, 0]",4,congruent,,,,,,,,,,,,,,,,,,,,,,0,17,17,37,,,,,,,,,,,,,,,,,,,,,,,,,,,,,,,,,,,,,,,,,,,,,,624.2177678002045,1.011961200274527,625.2231814004481,625.3063930002972,626.1061717001721,626.2061577998102,626.2061577998102,626.2061577998102,right,1,0.8827924998477101,,,,,,,,,,,,,,,,,,,,,,,,,,,,,,,,,,,,,001,001,2023-11-10_14h51.42.577,ETproject_Chi_2023.1.1,2023.1.1,60.0628736516048,
98,Week,星期二,星期五,,Hori,early,left,image/Chi_early.png,"[-0.4, 0]","[0.4, 0]",3,congruent,,,,,,,,,,,,,,,,,,,,,,0,18,18,39,,,,,,,,,,,,,,,,,,,,,,,,,,,,,,,,,,,,,,,,,,,,,,627.1172214997932,1.0115347001701593,628.1223299000412,628.2056101998314,629.0051424000412,629.1051874998957,629.1051874998957,629.1051874998957,left,1,0.9774242993444204,,,,,,,,,,,,,,,,,,,,,,,,,,,,,,,,,,,,,001,001,2023-11-10_14h51.42.577,ETproject_Chi_2023.1.1,2023.1.1,60.0628736516048,
53,Month,五月,三月,,Hori,late,left,image/Chi_late.png,"[-0.4, 0]","[0.4, 0]",2,incongruent,,,,,,,,,,,,,,,,,,,,,,0,19,19,2,,,,,,,,,,,,,,,,,,,,,,,,,,,,,,,,,,,,,,,,,,,,,,630.1161927999929,1.0155119001865387,631.121198900044,631.2046443996951,632.0042105000466,632.1042670002207,632.1042670002207,632.1042670002207,left,1,1.0413799993693829,,,,,,,,,,,,,,,,,,,,,,,,,,,,,,,,,,,,,001,001,2023-11-10_14h51.42.577,ETproject_Chi_2023.1.1,2023.1.1,60.0628736516048,
29,Month,五月,九月 ,,Vert,late,down,image/Chi_late.png,"[0, 0.4]","[0, -0.4]",4,congruent,,,,,,,,,,,,,,,,,,,,,,0,20,20,21,,,,,,,,,,,,,,,,,,,,,,,,,,,,,,,,,,,,,,,,,,,,,,633.1726689003408,0.9993987996131182,634.1868631001562,634.270126500167,635.0699204001576,635.1698205005378,635.1698205005378,635.1698205005378,down,1,0.9833231000229716,,,,,,,,,,,,,,,,,,,,,,,,,,,,,,,,,,,,,001,001,2023-11-10_14h51.42.577,ETproject_Chi_2023.1.1,2023.1.1,60.0628736516048,
60,Month,十二月,十月 ,,Hori,late,left,image/Chi_late.png,"[-0.4, 0]","[0.4, 0]",2,incongruent,,,,,,,,,,,,,,,,,,,,,,0,21,21,45,,,,,,,,,,,,,,,,,,,,,,,,,,,,,,,,,,,,,,,,,,,,,,636.1760852001607,1.0145494993776083,637.1857690997422,637.2690837001428,638.0689321998507,638.1689884001389,638.1689884001389,638.1689884001389,left,1,1.064703400246799,,,,,,,,,,,,,,,,,,,,,,,,,,,,,,,,,,,,,001,001,2023-11-10_14h51.42.577,ETproject_Chi_2023.1.1,2023.1.1,60.0628736516048,
21,Month,五月,九月 ,,Vert,early,up,image/Chi_early.png,"[0, 0.4]","[0, -0.4]",4,congruent,,,,,,,,,,,,,,,,,,,,,,0,22,22,46,,,,,,,,,,,,,,,,,,,,,,,,,,,,,,,,,,,,,,,,,,,,,,639.2615016000345,1.0133670000359416,640.2681007003412,640.351301100105,641.1510966001078,641.2511328002438,641.2511328002438,641.2511328002438,up,1,1.7661109995096922,,,,,,,,,,,,,,,,,,,,,,,,,,,,,,,,,,,,,001,001,2023-11-10_14h51.42.577,ETproject_Chi_2023.1.1,2023.1.1,60.0628736516048,
1,Month,一月,四月,,Hori,early,left,image/Chi_early.png,"[-0.4, 0]","[0.4, 0]",3,congruent,,,,,,,,,,,,,,,,,,,,,,0,23,23,34,,,,,,,,,,,,,,,,,,,,,,,,,,,,,,,,,,,,,,,,,,,,,,643.0444320999086,1.0119375996291637,644.0501971002668,644.1335858004168,644.9333683997393,645.0332479998469,645.0332479998469,645.0332479998469,left,1,0.8399684997275472,,,,,,,,,,,,,,,,,,,,,,,,,,,,,,,,,,,,,001,001,2023-11-10_14h51.42.577,ETproject_Chi_2023.1.1,2023.1.1,60.0628736516048,
23,Month,一月,二月 ,,Vert,early,up,image/Chi_early.png,"[0, 0.4]","[0, -0.4]",1,congruent,,,,,,,,,,,,,,,,,,,,,,0,24,24,30,,,,,,,,,,,,,,,,,,,,,,,,,,,,,,,,,,,,,,,,,,,,,,645.9078404000029,1.0106501998379827,646.9159089000896,646.999326900579,647.7989424997941,647.8989783003926,647.8989783003926,647.8989783003926,up,1,1.1594413993880153,,,,,,,,,,,,,,,,,,,,,,,,,,,,,,,,,,,,,001,001,2023-11-10_14h51.42.577,ETproject_Chi_2023.1.1,2023.1.1,60.0628736516048,
65,Month,七月,五月,,Vert,early,down,image/Chi_early.png,"[0, 0.4]","[0, -0.4]",2,incongruent,,,,,,,,,,,,,,,,,,,,,,0,25,25,11,,,,,,,,,,,,,,,,,,,,,,,,,,,,,,,,,,,,,,,,,,,,,,649.0856574000791,0.999167500063777,650.0983897000551,650.181550799869,650.9812658000737,651.0813840003684,651.0813840003684,651.0813840003684,down,1,0.8238506000488997,,,,,,,,,,,,,,,,,,,,,,,,,,,,,,,,,,,,,001,001,2023-11-10_14h51.42.577,ETproject_Chi_2023.1.1,2023.1.1,60.0628736516048,
134,Week,星期五,星期三 ,,Hori,late,left,image/Chi_late.png,"[-0.4, 0]","[0.4, 0]",2,incongruent,,,,,,,,,,,,,,,,,,,,,,0,26,26,47,,,,,,,,,,,,,,,,,,,,,,,,,,,,,,,,,,,,,,,,,,,,,,651.9465292003006,1.0146307004615664,652.9471738003194,653.0305251004174,653.830375100486,653.93033760041,653.93033760041,653.93033760041,left,1,1.1516402997076511,,,,,,,,,,,,,,,,,,,,,,,,,,,,,,,,,,,,,001,001,2023-11-10_14h51.42.577,ETproject_Chi_2023.1.1,2023.1.1,60.0628736516048,
39,Month,十一月 ,七月,,Hori,early,right,image/Chi_early.png,"[-0.4, 0]","[0.4, 0]",4,incongruent,,,,,,,,,,,,,,,,,,,,,,0,27,27,40,,,,,,,,,,,,,,,,,,,,,,,,,,,,,,,,,,,,,,,,,,,,,,655.1270601004362,1.01345119997859,656.1295921001583,656.2128560002893,657.0126681001857,657.1126247998327,657.1126247998327,657.1126247998327,right,1,0.9776149997487664,,,,,,,,,,,,,,,,,,,,,,,,,,,,,,,,,,,,,001,001,2023-11-10_14h51.42.577,ETproject_Chi_2023.1.1,2023.1.1,60.0628736516048,
6,Month,六月,九月 ,,Hori,early,left,image/Chi_early.png,"[-0.4, 0]","[0.4, 0]",3,congruent,,,,,,,,,,,,,,,,,,,,,,0,28,28,25,,,,,,,,,,,,,,,,,,,,,,,,,,,,,,,,,,,,,,,,,,,,,,658.1187968002632,1.0132771003991365,659.1287372997031,659.2119546998292,660.0115622002631,660.1115907998756,660.1115907998756,660.1115907998756,left,1,1.018075100146234,,,,,,,,,,,,,,,,,,,,,,,,,,,,,,,,,,,,,001,001,2023-11-10_14h51.42.577,ETproject_Chi_2023.1.1,2023.1.1,60.0628736516048,
70,Month,十月 ,七月,,Vert,late,up,image/Chi_late.png,"[0, 0.4]","[0, -0.4]",3,incongruent,,,,,,,,,,,,,,,,,,,,,,0,29,29,19,,,,,,,,,,,,,,,,,,,,,,,,,,,,,,,,,,,,,,,,,,,,,,661.1740808002651,1.0108427004888654,662.1776378005743,662.2609312003478,663.0605837004259,663.1605390002951,663.1605390002951,663.1605390002951,up,1,1.4418476996943355,,,,,,,,,,,,,,,,,,,,,,,,,,,,,,,,,,,,,001,001,2023-11-10_14h51.42.577,ETproject_Chi_2023.1.1,2023.1.1,60.0628736516048,
61,Month,十月 ,七月,,Vert,early,down,image/Chi_early.png,"[0, 0.4]","[0, -0.4]",3,incongruent,,,,,,,,,,,,,,,,,,,,,,0,30,30,16,,,,,,,,,,,,,,,,,,,,,,,,,,,,,,,,,,,,,,,,,,,,,,664.6349839000031,1.0147355999797583,665.6431320998818,665.7263964004815,666.526140300557,666.6261593997478,666.6261593997478,666.6261593997478,down,1,1.112118899822235,,,,,,,,,,,,,,,,,,,,,,,,,,,,,,,,,,,,,001,001,2023-11-10_14h51.42.577,ETproject_Chi_2023.1.1,2023.1.1,60.0628736516048,
16,Month,七月,十月 ,,Hori,late,right,image/Chi_late.png,"[-0.4, 0]","[0.4, 0]",3,congruent,,,,,,,,,,,,,,,,,,,,,,0,31,31,43,,,,,,,,,,,,,,,,,,,,,,,,,,,,,,,,,,,,,,,,,,,,,,667.7737913001329,1.01283620018512,668.7754818005487,668.8586228005588,669.6585707999766,669.7585271997377,669.7585271997377,669.7585271997377,right,1,1.1955535998567939,,,,,,,,,,,,,,,,,,,,,,,,,,,,,,,,,,,,,001,001,2023-11-10_14h51.42.577,ETproject_Chi_2023.1.1,2023.1.1,60.0628736516048,
11,Month,十一月 ,十二月,,Hori,early,left,image/Chi_early.png,"[-0.4, 0]","[0.4, 0]",1,congruent,,,,,,,,,,,,,,,,,,,,,,0,32,32,28,,,,,,,,,,,,,,,,,,,,,,,,,,,,,,,,,,,,,,,,,,,,,,670.9831133000553,1.015059600584209,671.9909268999472,672.0743783004582,672.8740766001865,672.9740642001852,672.9740642001852,672.9740642001852,left,1,1.3789414996281266,,,,,,,,,,,,,,,,,,,,,,,,,,,,,,,,,,,,,001,001,2023-11-10_14h51.42.577,ETproject_Chi_2023.1.1,2023.1.1,60.0628736516048,
48,Month,十月 ,八月,,Hori,early,right,image/Chi_early.png,"[-0.4, 0]","[0.4, 0]",2,incongruent,,,,,,,,,,,,,,,,,,,,,,0,33,33,32,,,,,,,,,,,,,,,,,,,,,,,,,,,,,,,,,,,,,,,,,,,,,,674.3783955005929,1.0153289996087551,675.3898651003838,675.4732184000313,676.2730267001316,676.3730840003118,676.3730840003118,676.3730840003118,right,1,1.1646985998377204,,,,,,,,,,,,,,,,,,,,,,,,,,,,,,,,,,,,,001,001,2023-11-10_14h51.42.577,ETproject_Chi_2023.1.1,2023.1.1,60.0628736516048,
99,Week,星期三 ,星期五,,Hori,early,left,image/Chi_early.png,"[-0.4, 0]","[0.4, 0]",2,congruent,,,,,,,,,,,,,,,,,,,,,,0,34,34,3,,,,,,,,,,,,,,,,,,,,,,,,,,,,,,,,,,,,,,,,,,,,,,677.5609844997525,1.0153548000380397,678.5720869004726,678.6556035000831,679.455314300023,679.5555166006088,679.5555166006088,679.5555166006088,left,1,0.8700758004561067,,,,,,,,,,,,,,,,,,,,,,,,,,,,,,,,,,,,,001,001,2023-11-10_14h51.42.577,ETproject_Chi_2023.1.1,2023.1.1,60.0628736516048,
59,Month,五月,四月,,Hori,late,left,image/Chi_late.png,"[-0.4, 0]","[0.4, 0]",1,incongruent,,,,,,,,,,,,,,,,,,,,,,0,35,35,12,,,,,,,,,,,,,,,,,,,,,,,,,,,,,,,,,,,,,,,,,,,,,,680.4627852998674,1.0146671999245882,681.4712132001296,681.5544062005356,682.3543038005009,682.4544082004577,682.4544082004577,682.4544082004577,left,1,1.3148312997072935,,,,,,,,,,,,,,,,,,,,,,,,,,,,,,,,,,,,,001,001,2023-11-10_14h51.42.577,ETproject_Chi_2023.1.1,2023.1.1,60.0628736516048,
57,Month,三月,二月,,Hori,late,left,image/Chi_late.png,"[-0.4, 0]","[0.4, 0]",1,incongruent,,,,,,,,,,,,,,,,,,,,,,0,36,36,13,,,,,,,,,,,,,,,,,,,,,,,,,,,,,,,,,,,,,,,,,,,,,,683.7938534002751,1.014796500094235,684.8034588005394,684.8868559999391,685.6865734998137,685.7864522999153,685.7864522999153,685.7864522999153,left,1,0.6636639991775155,,,,,,,,,,,,,,,,,,,,,,,,,,,,,,,,,,,,,001,001,2023-11-10_14h51.42.577,ETproject_Chi_2023.1.1,2023.1.1,60.0628736516048,
126,Week,星期四,星期二,,Hori,early,right,image/Chi_early.png,"[-0.4, 0]","[0.4, 0]",2,incongruent,,,,,,,,,,,,,,,,,,,,,,0,37,37,24,,,,,,,,,,,,,,,,,,,,,,,,,,,,,,,,,,,,,,,,,,,,,,686.4877049997449,1.011077799834311,687.5025907997042,687.5692031998187,688.3689095005393,688.4691489003599,688.4691489003599,688.4691489003599,right,1,0.8611567001789808,,,,,,,,,,,,,,,,,,,,,,,,,,,,,,,,,,,,,001,001,2023-11-10_14h51.42.577,ETproject_Chi_2023.1.1,2023.1.1,60.0628736516048,
43,Month,十月 ,七月,,Hori,early,right,image/Chi_early.png,"[-0.4, 0]","[0.4, 0]",3,incongruent,,,,,,,,,,,,,,,,,,,,,,0,38,38,7,,,,,,,,,,,,,,,,,,,,,,,,,,,,,,,,,,,,,,,,,,,,,,689.3615752002224,1.0100364005193114,690.3683515004814,690.451624000445,691.2513482002541,691.3512219004333,691.3512219004333,691.3512219004333,right,1,0.9463026002049446,,,,,,,,,,,,,,,,,,,,,,,,,,,,,,,,,,,,,001,001,2023-11-10_14h51.42.577,ETproject_Chi_2023.1.1,2023.1.1,60.0628736516048,
68,Month,十月 ,八月,,Vert,early,down,image/Chi_early.png,"[0, 0.4]","[0, -0.4]",2,incongruent,,,,,,,,,,,,,,,,,,,,,,0,39,39,48,,,,,,,,,,,,,,,,,,,,,,,,,,,,,,,,,,,,,,,,,,,,,,692.324558599852,1.0117089003324509,693.3338067997247,693.4173506004736,694.2170820003375,694.3170934999362,694.3170934999362,694.3170934999362,down,1,1.0046678995713592,,,,,,,,,,,,,,,,,,,,,,,,,,,,,,,,,,,,,001,001,2023-11-10_14h51.42.577,ETproject_Chi_2023.1.1,2023.1.1,60.0628736516048,
57,Month,六月,三月,,Vert,early,down,image/Chi_early.png,"[0, 0.4]","[0, -0.4]",3,incongruent,,,,,,,,,,,,,,,,,,,,,,0,40,40,4,,,,,,,,,,,,,,,,,,,,,,,,,,,,,,,,,,,,,,,,,,,,,,695.3577847005799,1.011715400032699,696.3665541997179,696.449559500441,697.2493537003174,697.349318000488,697.349318000488,697.349318000488,down,1,0.7890472998842597,,,,,,,,,,,,,,,,,,,,,,,,,,,,,,,,,,,,,001,001,2023-11-10_14h51.42.577,ETproject_Chi_2023.1.1,2023.1.1,60.0628736516048,
111,Week,星期一,星期三 ,,Vert,early,up,image/Chi_early.png,"[0, 0.4]","[0, -0.4]",2,congruent,,,,,,,,,,,,,,,,,,,,,,0,41,41,8,,,,,,,,,,,,,,,,,,,,,,,,,,,,,,,,,,,,,,,,,,,,,,698.1692745005712,0.9991926001384854,699.1820226004347,699.2653141003102,700.0651984000579,700.1649981001392,700.1649981001392,700.1649981001392,up,1,0.9164328994229436,,,,,,,,,,,,,,,,,,,,,,,,,,,,,,,,,,,,,001,001,2023-11-10_14h51.42.577,ETproject_Chi_2023.1.1,2023.1.1,60.0628736516048,
2,Month,二月,五月,,Hori,early,left,image/Chi_early.png,"[-0.4, 0]","[0.4, 0]",3,congruent,,,,,,,,,,,,,,,,,,,,,,0,42,42,36,,,,,,,,,,,,,,,,,,,,,,,,,,,,,,,,,,,,,,,,,,,,,,701.1053490005434,1.0149570005014539,702.1143452003598,702.197639499791,702.9974084999412,703.0974872997031,703.0974872997031,703.0974872997031,left,1,0.680859699845314,,,,,,,,,,,,,,,,,,,,,,,,,,,,,,,,,,,,,001,001,2023-11-10_14h51.42.577,ETproject_Chi_2023.1.1,2023.1.1,60.0628736516048,
7,Month,七月,十一月 ,,Hori,early,left,image/Chi_early.png,"[-0.4, 0]","[0.4, 0]",4,congruent,,,,,,,,,,,,,,,,,,,,,,0,43,43,49,,,,,,,,,,,,,,,,,,,,,,,,,,,,,,,,,,,,,,,,,,,,,,703.8062872998416,1.0112891998142004,704.8136697001755,704.8969187997282,705.6966701000929,705.7966534001753,705.7966534001753,705.7966534001753,left,1,0.6842086995020509,,,,,,,,,,,,,,,,,,,,,,,,,,,,,,,,,,,,,001,001,2023-11-10_14h51.42.577,ETproject_Chi_2023.1.1,2023.1.1,60.0628736516048,
34,Month,四月,六月,,Vert,late,down,image/Chi_late.png,"[0, 0.4]","[0, -0.4]",2,congruent,,,,,,,,,,,,,,,,,,,,,,0,44,44,38,,,,,,,,,,,,,,,,,,,,,,,,,,,,,,,,,,,,,,,,,,,,,,706.5306639997289,1.0102349007502198,707.5294428002089,707.6126696998253,708.4122365005314,708.5123712997884,708.5123712997884,708.5123712997884,down,1,0.8259223997592926,,,,,,,,,,,,,,,,,,,,,,,,,,,,,,,,,,,,,001,001,2023-11-10_14h51.42.577,ETproject_Chi_2023.1.1,2023.1.1,60.0628736516048,
46,Month,八月,六月,,Hori,early,right,image/Chi_early.png,"[-0.4, 0]","[0.4, 0]",2,incongruent,,,,,,,,,,,,,,,,,,,,,,0,45,45,6,,,,,,,,,,,,,,,,,,,,,,,,,,,,,,,,,,,,,,,,,,,,,,709.3675618004054,0.9992294004186988,710.3784151002765,710.4616159005091,711.2614652998745,711.3613259997219,711.3613259997219,711.3613259997219,right,1,1.2409757999703288,,,,,,,,,,,,,,,,,,,,,,,,,,,,,,,,,,,,,001,001,2023-11-10_14h51.42.577,ETproject_Chi_2023.1.1,2023.1.1,60.0628736516048,
141,Week,星期六,星期三 ,,Vert,early,down,image/Chi_early.png,"[0, 0.4]","[0, -0.4]",3,incongruent,,,,,,,,,,,,,,,,,,,,,,0,46,46,29,,,,,,,,,,,,,,,,,,,,,,,,,,,,,,,,,,,,,,,,,,,,,,712.6357252001762,1.0115860002115369,713.6439350005239,713.7271314002573,714.5268921004608,714.6271385997534,714.6271385997534,714.6271385997534,down,1,1.1019425997510552,,,,,,,,,,,,,,,,,,,,,,,,,,,,,,,,,,,,,001,001,2023-11-10_14h51.42.577,ETproject_Chi_2023.1.1,2023.1.1,60.0628736516048,
13,Month,二月,三月,,Hori,late,right,image/Chi_late.png,"[-0.4, 0]","[0.4, 0]",1,congruent,,,,,,,,,,,,,,,,,,,,,,0,47,47,42,,,,,,,,,,,,,,,,,,,,,,,,,,,,,,,,,,,,,,,,,,,,,,715.773335499689,1.0110583994537592,716.7761744000018,716.8596015004441,717.6592319002375,717.7592334998772,717.7592334998772,717.7592334998772,right,1,1.0831078998744488,,,,,,,,,,,,,,,,,,,,,,,,,,,,,,,,,,,,,001,001,2023-11-10_14h51.42.577,ETproject_Chi_2023.1.1,2023.1.1,60.0628736516048,
114,Week,星期四,星期五,,Vert,early,up,image/Chi_early.png,"[0, 0.4]","[0, -0.4]",1,congruent,,,,,,,,,,,,,,,,,,,,,,0,48,48,10,,,,,,,,,,,,,,,,,,,,,,,,,,,,,,,,,,,,,,,,,,,,,,718.8664028001949,1.0153845008462667,719.8752458002418,719.9586489005014,720.7582854004577,720.8583255000412,720.8583255000412,720.8583255000412,down,0,1.2549136998131871,,,,,,,,,,,,,,,,,,,,,,,,,,,,,,,,,,,,,001,001,2023-11-10_14h51.42.577,ETproject_Chi_2023.1.1,2023.1.1,60.0628736516048,
25,Month,一月,五月,,Vert,late,down,image/Chi_late.png,"[0, 0.4]","[0, -0.4]",4,congruent,,,,,,,,,,,,,,,,,,,,,,0,49,49,23,,,,,,,,,,,,,,,,,,,,,,,,,,,,,,,,,,,,,,,,,,,,,,723.1496732002124,1.014371999539435,724.1572758005932,724.2403709003702,725.040215600282,725.1401720000431,725.1401720000431,725.1401720000431,down,1,0.9727062992751598,,,,,,,,,,,,,,,,,,,,,,,,,,,,,,,,,,,,,001,001,2023-11-10_14h51.42.577,ETproject_Chi_2023.1.1,2023.1.1,60.0628736516048,
,,,,,,,,,,,,,,,,,,,,,,,,,,,,,,,,,,,,,,,,,,,,,,,,,,,,,,,,,,,,,,,,,,,,,,,,,,,,,,,,,,,,,,,,,,,,,,,,,,,,,,,,,,,,,,,,726.1399266999215,726.1399266999215,space,4.444856899790466,,,,,,,,,,,,,,,001,001,2023-11-10_14h51.42.577,ETproject_Chi_2023.1.1,2023.1.1,60.0628736516048,
,,,,,,,,,,,,,Spring 1.jpg,这是春天吗？,是,Left,Break_material/Image/Spring 1.jpg,,,,,,,,,,,,,,,,,,,,,0,0,0,0,,,,,,,,,,,,,,,,,,,,,,,,,,,,,,,,,,,,,,,,,,,,,,,,,,,,,,,,,730.6690308004618,734.5907177999616,734.6703840000555,736.6030933000147,736.6030933000147,736.6030933000147,736.6030933000147,left,0,0.4471197994425893,,,,,,,,,,,,,,,,,,,,,,,001,001,2023-11-10_14h51.42.577,ETproject_Chi_2023.1.1,2023.1.1,60.0628736516048,
,,,,,,,,,,,,,Spring 2.jpg,这是冬天吗？,否,Right,Break_material/Image/Spring 2.jpg,,,,,,,,,,,,,,,,,,,,,0,1,1,1,,,,,,,,,,,,,,,,,,,,,,,,,,,,,,,,,,,,,,,,,,,,,,,,,,,,,,,,,737.1486812001094,741.0549523001537,741.1515727005899,743.0676645003259,743.0676645003259,743.0676645003259,743.0676645003259,right,0,0.7905402993783355,,,,,,,,,,,,,,,,,,,,,,,001,001,2023-11-10_14h51.42.577,ETproject_Chi_2023.1.1,2023.1.1,60.0628736516048,
,,,,,,,,,,,,,Spring 5.jpg,这是冬天吗？,否,Right,Break_material/Image/Spring 5.jpg,,,,,,,,,,,,,,,,,,,,,0,2,2,4,,,,,,,,,,,,,,,,,,,,,,,,,,,,,,,,,,,,,,,,,,,,,,,,,,,,,,,,,744.3533552996814,747.8704540999606,748.3492224002257,749.8819944998249,749.8819944998249,749.8819944998249,749.8819944998249,right,0,0.7201129989698529,,,,,,,,,,,,,,,,,,,,,,,001,001,2023-11-10_14h51.42.577,ETproject_Chi_2023.1.1,2023.1.1,60.0628736516048,
,,,,,,,,,,,,,Spring 3.jpg,这是夏天吗？,否,Right,Break_material/Image/Spring 3.jpg,,,,,,,,,,,,,,,,,,,,,0,3,3,2,,,,,,,,,,,,,,,,,,,,,,,,,,,,,,,,,,,,,,,,,,,,,,,,,,,,,,,,,750.8512147003785,754.6170954005793,754.8468252997845,756.6294427001849,756.6294427001849,756.6294427001849,756.6294427001849,left,0,0.6771031003445387,,,,,,,,,,,,,,,,,,,,,,,001,001,2023-11-10_14h51.42.577,ETproject_Chi_2023.1.1,2023.1.1,60.0628736516048,
,,,,,,,,,,,,,Spring 4.jpg,这是秋天吗？,否,Right,Break_material/Image/Spring 4.jpg,,,,,,,,,,,,,,,,,,,,,0,4,4,3,,,,,,,,,,,,,,,,,,,,,,,,,,,,,,,,,,,,,,,,,,,,,,,,,,,,,,,,,757.5425906004384,761.3158886004239,761.5445424998179,763.3272898001596,763.3272898001596,763.3272898001596,763.3272898001596,right,0,0.7304255999624729,,,,,,,,,,,,,,,,,,,,,,,001,001,2023-11-10_14h51.42.577,ETproject_Chi_2023.1.1,2023.1.1,60.0628736516048,
,,,,,,,,,,,,,,,,,,,,,,,,,,,,,,,,,,,,,,,,,,,,,,,,,,,,,,,,,,,,,,,,,,,,,,,,,,,,,,,,,,,,,,,,,,,,,,,,,,,,,,,,,,,,,,,,,,,,764.0772142000496,764.0772142000496,space,7.708422900177538,,,,,,,,,,,001,001,2023-11-10_14h51.42.577,ETproject_Chi_2023.1.1,2023.1.1,60.0628736516048,
149,Week,星期五,星期四,,Vert,late,up,image/Chi_late.png,"[0, 0.4]","[0, -0.4]",1,incongruent,,,,,,,,,,,,,,,,,,,,,,,,,,,,,,0,0,0,8,,,,,,,,,,,,,,,,,,,,,,,,,,,,,,,,,,,,,,771.8236541002989,0.9992594998329878,772.8242536000907,772.9076423002407,773.7071829997003,773.8072584997863,773.8072584997863,773.8072584997863,up,1,0.778723300434649,,,,,,,,,,,,,,,,,,,,,,,,,,,,,,,,,,,,,001,001,2023-11-10_14h51.42.577,ETproject_Chi_2023.1.1,2023.1.1,60.0628736516048,
32,Month,五月,八月,,Vert,late,down,image/Chi_late.png,"[0, 0.4]","[0, -0.4]",3,congruent,,,,,,,,,,,,,,,,,,,,,,,,,,,,,,0,1,1,9,,,,,,,,,,,,,,,,,,,,,,,,,,,,,,,,,,,,,,774.6157700000331,1.011153600178659,775.6233192998916,775.7066059997305,776.5063650999218,776.6063226005062,776.6063226005062,776.6063226005062,down,1,1.5551265999674797,,,,,,,,,,,,,,,,,,,,,,,,,,,,,,,,,,,,,001,001,2023-11-10_14h51.42.577,ETproject_Chi_2023.1.1,2023.1.1,60.0628736516048,
47,Month,五月,二月,,Hori,late,left,image/Chi_late.png,"[-0.4, 0]","[0.4, 0]",3,incongruent,,,,,,,,,,,,,,,,,,,,,,,,,,,,,,0,2,2,10,,,,,,,,,,,,,,,,,,,,,,,,,,,,,,,,,,,,,,778.195459600538,1.0127166006714106,779.2053290000185,779.2887703999877,780.0884785000235,780.1883369004354,780.1883369004354,780.1883369004354,left,1,1.1406767992302775,,,,,,,,,,,,,,,,,,,,,,,,,,,,,,,,,,,,,001,001,2023-11-10_14h51.42.577,ETproject_Chi_2023.1.1,2023.1.1,60.0628736516048,
76,Month,十一月 ,十月 ,,Vert,early,down,image/Chi_early.png,"[0, 0.4]","[0, -0.4]",1,incongruent,,,,,,,,,,,,,,,,,,,,,,,,,,,,,,0,3,3,1,,,,,,,,,,,,,,,,,,,,,,,,,,,,,,,,,,,,,,781.3731441004202,1.0108643993735313,782.3877271004021,782.4543189005926,783.2540749004111,783.3541093003005,783.3541093003005,783.3541093003005,down,1,0.8164309002459049,,,,,,,,,,,,,,,,,,,,,,,,,,,,,,,,,,,,,001,001,2023-11-10_14h51.42.577,ETproject_Chi_2023.1.1,2023.1.1,60.0628736516048,
63,Month,十一月 ,七月,,Vert,late,up,image/Chi_late.png,"[0, 0.4]","[0, -0.4]",4,incongruent,,,,,,,,,,,,,,,,,,,,,,,,,,,,,,0,4,4,3,,,,,,,,,,,,,,,,,,,,,,,,,,,,,,,,,,,,,,784.1965810004622,1.0120189003646374,785.2032917002216,785.2868125997484,786.0864741997793,786.1864272002131,786.1864272002131,786.1864272002131,up,1,0.846534600481391,,,,,,,,,,,,,,,,,,,,,,,,,,,,,,,,,,,,,001,001,2023-11-10_14h51.42.577,ETproject_Chi_2023.1.1,2023.1.1,60.0628736516048,
57,Month,五月,一月,,Vert,late,up,image/Chi_late.png,"[0, 0.4]","[0, -0.4]",4,incongruent,,,,,,,,,,,,,,,,,,,,,,,,,,,,,,0,5,5,25,,,,,,,,,,,,,,,,,,,,,,,,,,,,,,,,,,,,,,787.0594380004331,1.0132954996079206,788.0690067000687,788.1524405004457,788.9521414004266,789.0522969998419,789.0522969998419,789.0522969998419,up,1,0.8777353996410966,,,,,,,,,,,,,,,,,,,,,,,,,,,,,,,,,,,,,001,001,2023-11-10_14h51.42.577,ETproject_Chi_2023.1.1,2023.1.1,60.0628736516048,
42,Month,九月 ,六月,,Hori,early,right,image/Chi_early.png,"[-0.4, 0]","[0.4, 0]",3,incongruent,,,,,,,,,,,,,,,,,,,,,,,,,,,,,,0,6,6,4,,,,,,,,,,,,,,,,,,,,,,,,,,,,,,,,,,,,,,789.9592367997393,1.015348999761045,790.968329500407,791.0515288002789,791.8511998001486,791.9512280998752,791.9512280998752,791.9512280998752,right,1,0.9057563999667764,,,,,,,,,,,,,,,,,,,,,,,,,,,,,,,,,,,,,001,001,2023-11-10_14h51.42.577,ETproject_Chi_2023.1.1,2023.1.1,60.0628736516048,
122,Week,星期五,星期日,,Vert,late,down,image/Chi_late.png,"[0, 0.4]","[0, -0.4]",2,congruent,,,,,,,,,,,,,,,,,,,,,,,,,,,,,,0,7,7,40,,,,,,,,,,,,,,,,,,,,,,,,,,,,,,,,,,,,,,792.894148199819,1.0124553004279733,793.9005228001624,793.9839810002595,794.7835614997894,794.883596399799,794.883596399799,794.883596399799,down,1,1.182777900248766,,,,,,,,,,,,,,,,,,,,,,,,,,,,,,,,,,,,,001,001,2023-11-10_14h51.42.577,ETproject_Chi_2023.1.1,2023.1.1,60.0628736516048,
79,Month,十一月 ,九月 ,,Vert,late,up,image/Chi_late.png,"[0, 0.4]","[0, -0.4]",2,incongruent,,,,,,,,,,,,,,,,,,,,,,,,,,,,,,0,8,8,0,,,,,,,,,,,,,,,,,,,,,,,,,,,,,,,,,,,,,,796.0911686001346,1.0143375005573034,797.099373199977,797.1828343002126,797.9826051006094,798.0825049001724,798.0825049001724,798.0825049001724,up,1,0.8797124996781349,,,,,,,,,,,,,,,,,,,,,,,,,,,,,,,,,,,,,001,001,2023-11-10_14h51.42.577,ETproject_Chi_2023.1.1,2023.1.1,60.0628736516048,
52,Month,八月,四月,,Vert,early,down,image/Chi_early.png,"[0, 0.4]","[0, -0.4]",4,incongruent,,,,,,,,,,,,,,,,,,,,,,,,,,,,,,0,9,9,31,,,,,,,,,,,,,,,,,,,,,,,,,,,,,,,,,,,,,,798.9928158000112,1.0113564999774098,799.9985041003674,800.0818095998839,800.8815933000296,800.9815245000646,800.9815245000646,800.9815245000646,down,1,0.6518596997484565,,,,,,,,,,,,,,,,,,,,,,,,,,,,,,,,,,,,,001,001,2023-11-10_14h51.42.577,ETproject_Chi_2023.1.1,2023.1.1,60.0628736516048,
119,Week,星期二,星期四,,Vert,late,down,image/Chi_late.png,"[0, 0.4]","[0, -0.4]",2,congruent,,,,,,,,,,,,,,,,,,,,,,,,,,,,,,0,10,10,45,,,,,,,,,,,,,,,,,,,,,,,,,,,,,,,,,,,,,,801.6750060003251,1.0125791002064943,802.68092110008,802.7645262004808,803.5640139998868,803.6640416001901,803.6640416001901,803.6640416001901,down,1,0.6658701002597809,,,,,,,,,,,,,,,,,,,,,,,,,,,,,,,,,,,,,001,001,2023-11-10_14h51.42.577,ETproject_Chi_2023.1.1,2023.1.1,60.0628736516048,
38,Month,五月,六月,,Vert,late,down,image/Chi_late.png,"[0, 0.4]","[0, -0.4]",1,congruent,,,,,,,,,,,,,,,,,,,,,,,,,,,,,,0,11,11,20,,,,,,,,,,,,,,,,,,,,,,,,,,,,,,,,,,,,,,804.3568417998031,1.0103585999459028,805.3633773997426,805.4467588001862,806.2465738998726,806.3464492997155,806.3464492997155,806.3464492997155,down,1,1.8792179999873042,,,,,,,,,,,,,,,,,,,,,,,,,,,,,,,,,,,,,001,001,2023-11-10_14h51.42.577,ETproject_Chi_2023.1.1,2023.1.1,60.0628736516048,
107,Week,星期四,星期日,,Hori,late,right,image/Chi_late.png,"[-0.4, 0]","[0.4, 0]",3,congruent,,,,,,,,,,,,,,,,,,,,,,,,,,,,,,0,12,12,34,,,,,,,,,,,,,,,,,,,,,,,,,,,,,,,,,,,,,,808.2532724998891,1.0134060997515917,809.2622292004526,809.3454839000478,810.145352399908,810.245316600427,810.245316600427,810.245316600427,right,1,1.411880699917674,,,,,,,,,,,,,,,,,,,,,,,,,,,,,,,,,,,,,001,001,2023-11-10_14h51.42.577,ETproject_Chi_2023.1.1,2023.1.1,60.0628736516048,
43,Month,七月,三月,,Hori,late,left,image/Chi_late.png,"[-0.4, 0]","[0.4, 0]",4,incongruent,,,,,,,,,,,,,,,,,,,,,,,,,,,,,,0,13,13,39,,,,,,,,,,,,,,,,,,,,,,,,,,,,,,,,,,,,,,811.6877246005461,1.0111090997233987,812.694301799871,812.7777249999344,813.5774455005303,813.6775182997808,813.6775182997808,813.6775182997808,left,1,1.0274496003985405,,,,,,,,,,,,,,,,,,,,,,,,,,,,,,,,,,,,,001,001,2023-11-10_14h51.42.577,ETproject_Chi_2023.1.1,2023.1.1,60.0628736516048,
31,Month,七月,十一月 ,,Vert,late,down,image/Chi_late.png,"[0, 0.4]","[0, -0.4]",4,congruent,,,,,,,,,,,,,,,,,,,,,,,,,,,,,,0,14,14,6,,,,,,,,,,,,,,,,,,,,,,,,,,,,,,,,,,,,,,814.7336857998744,1.0118634002283216,815.7432679003105,815.8265770999715,816.6264431001619,816.7264846004546,816.7264846004546,816.7264846004546,down,1,0.6753151994198561,,,,,,,,,,,,,,,,,,,,,,,,,,,,,,,,,,,,,001,001,2023-11-10_14h51.42.577,ETproject_Chi_2023.1.1,2023.1.1,60.0628736516048,
136,Week,星期六,星期五,,Hori,late,left,image/Chi_late.png,"[-0.4, 0]","[0.4, 0]",1,incongruent,,,,,,,,,,,,,,,,,,,,,,,,,,,,,,0,15,15,13,,,,,,,,,,,,,,,,,,,,,,,,,,,,,,,,,,,,,,817.4368278002366,1.0100288996472955,818.4423130005598,818.5259423004463,819.3255161000416,819.4255098002031,819.4255098002031,819.4255098002031,left,1,0.9850110989063978,,,,,,,,,,,,,,,,,,,,,,,,,,,,,,,,,,,,,001,001,2023-11-10_14h51.42.577,ETproject_Chi_2023.1.1,2023.1.1,60.0628736516048,
43,Month,五月,三月,,Hori,early,right,image/Chi_early.png,"[-0.4, 0]","[0.4, 0]",2,incongruent,,,,,,,,,,,,,,,,,,,,,,,,,,,,,,0,16,16,16,,,,,,,,,,,,,,,,,,,,,,,,,,,,,,,,,,,,,,820.4598904000595,1.0115590002387762,821.4748929999769,821.5414025997743,822.341159099713,822.4411319000646,822.4411319000646,822.4411319000646,right,1,0.9125061994418502,,,,,,,,,,,,,,,,,,,,,,,,,,,,,,,,,,,,,001,001,2023-11-10_14h51.42.577,ETproject_Chi_2023.1.1,2023.1.1,60.0628736516048,
51,Month,七月,三月,,Vert,early,down,image/Chi_early.png,"[0, 0.4]","[0, -0.4]",4,incongruent,,,,,,,,,,,,,,,,,,,,,,,,,,,,,,0,17,17,12,,,,,,,,,,,,,,,,,,,,,,,,,,,,,,,,,,,,,,823.3777354005724,1.0151792000979185,824.3905068999156,824.4738640999421,825.2735834997147,825.3734653005376,825.3734653005376,825.3734653005376,down,1,0.9718782994896173,,,,,,,,,,,,,,,,,,,,,,,,,,,,,,,,,,,,,001,001,2023-11-10_14h51.42.577,ETproject_Chi_2023.1.1,2023.1.1,60.0628736516048,
50,Month,六月,二月,,Vert,early,down,image/Chi_early.png,"[0, 0.4]","[0, -0.4]",4,incongruent,,,,,,,,,,,,,,,,,,,,,,,,,,,,,,0,18,18,30,,,,,,,,,,,,,,,,,,,,,,,,,,,,,,,,,,,,,,826.3810160998255,1.0129968002438545,827.3893673997372,827.4727793000638,828.2725800005719,828.3725813999772,828.3725813999772,828.3725813999772,down,1,0.941312700510025,,,,,,,,,,,,,,,,,,,,,,,,,,,,,,,,,,,,,001,001,2023-11-10_14h51.42.577,ETproject_Chi_2023.1.1,2023.1.1,60.0628736516048,
50,Month,七月,六月,,Hori,early,right,image/Chi_early.png,"[-0.4, 0]","[0.4, 0]",1,incongruent,,,,,,,,,,,,,,,,,,,,,,,,,,,,,,0,19,19,28,,,,,,,,,,,,,,,,,,,,,,,,,,,,,,,,,,,,,,829.346779900603,1.0120355999097228,830.3551027998328,830.4385286998004,831.2382005006075,831.3382317004725,831.3382317004725,831.3382317004725,right,1,1.4237867994233966,,,,,,,,,,,,,,,,,,,,,,,,,,,,,,,,,,,,,001,001,2023-11-10_14h51.42.577,ETproject_Chi_2023.1.1,2023.1.1,60.0628736516048,
68,Month,三月,二月,,Vert,early,down,image/Chi_early.png,"[0, 0.4]","[0, -0.4]",1,incongruent,,,,,,,,,,,,,,,,,,,,,,,,,,,,,,0,20,20,46,,,,,,,,,,,,,,,,,,,,,,,,,,,,,,,,,,,,,,832.7937692003325,1.0138940000906587,833.8041091999039,833.8873925004154,834.6871011005715,834.7872067000717,834.7872067000717,834.7872067000717,down,1,1.133746199309826,,,,,,,,,,,,,,,,,,,,,,,,,,,,,,,,,,,,,001,001,2023-11-10_14h51.42.577,ETproject_Chi_2023.1.1,2023.1.1,60.0628736516048,
8,Month,八月,十二月,,Hori,early,left,image/Chi_early.png,"[-0.4, 0]","[0.4, 0]",4,congruent,,,,,,,,,,,,,,,,,,,,,,,,,,,,,,0,21,21,7,,,,,,,,,,,,,,,,,,,,,,,,,,,,,,,,,,,,,,835.956762900576,1.0152580998837948,836.9696355005726,837.0529720000923,837.8525859005749,837.9529112000018,837.9529112000018,837.9529112000018,left,1,1.0891410000622272,,,,,,,,,,,,,,,,,,,,,,,,,,,,,,,,,,,,,001,001,2023-11-10_14h51.42.577,ETproject_Chi_2023.1.1,2023.1.1,60.0628736516048,
107,Week,星期四,星期五,,Hori,late,right,image/Chi_late.png,"[-0.4, 0]","[0.4, 0]",1,congruent,,,,,,,,,,,,,,,,,,,,,,,,,,,,,,0,22,22,19,,,,,,,,,,,,,,,,,,,,,,,,,,,,,,,,,,,,,,839.0835929997265,1.0146634001284838,840.0857140999287,840.1688700001687,840.9686526004225,841.0685724001378,841.0685724001378,841.0685724001378,right,1,1.0777415996417403,,,,,,,,,,,,,,,,,,,,,,,,,,,,,,,,,,,,,001,001,2023-11-10_14h51.42.577,ETproject_Chi_2023.1.1,2023.1.1,60.0628736516048,
58,Month,十月 ,八月,,Hori,late,left,image/Chi_late.png,"[-0.4, 0]","[0.4, 0]",2,incongruent,,,,,,,,,,,,,,,,,,,,,,,,,,,,,,0,23,23,26,,,,,,,,,,,,,,,,,,,,,,,,,,,,,,,,,,,,,,842.178754100576,1.0144956996664405,843.1845835000277,843.2677881000564,844.067613299936,844.1677345000207,844.1677345000207,844.1677345000207,left,1,0.8106583999469876,,,,,,,,,,,,,,,,,,,,,,,,,,,,,,,,,,,,,001,001,2023-11-10_14h51.42.577,ETproject_Chi_2023.1.1,2023.1.1,60.0628736516048,
47,Month,九月 ,七月,,Hori,early,right,image/Chi_early.png,"[-0.4, 0]","[0.4, 0]",2,incongruent,,,,,,,,,,,,,,,,,,,,,,,,,,,,,,0,24,24,23,,,,,,,,,,,,,,,,,,,,,,,,,,,,,,,,,,,,,,845.0169063005596,1.0105204991996288,846.0168741000816,846.1002620002255,846.8999744998291,846.9998630005866,846.9998630005866,846.9998630005866,right,1,1.153804300352931,,,,,,,,,,,,,,,,,,,,,,,,,,,,,,,,,,,,,001,001,2023-11-10_14h51.42.577,ETproject_Chi_2023.1.1,2023.1.1,60.0628736516048,
69,Month,十一月 ,九月 ,,Vert,early,down,image/Chi_early.png,"[0, 0.4]","[0, -0.4]",2,incongruent,,,,,,,,,,,,,,,,,,,,,,,,,,,,,,0,25,25,32,,,,,,,,,,,,,,,,,,,,,,,,,,,,,,,,,,,,,,849.187921400182,1.014525500126183,850.1989756003022,850.2821348998696,851.0819546002895,851.1819660002366,851.1819660002366,851.1819660002366,down,1,1.2434807000681758,,,,,,,,,,,,,,,,,,,,,,,,,,,,,,,,,,,,,001,001,2023-11-10_14h51.42.577,ETproject_Chi_2023.1.1,2023.1.1,60.0628736516048,
9,Month,九月 ,十月 ,,Hori,early,left,image/Chi_early.png,"[-0.4, 0]","[0.4, 0]",1,congruent,,,,,,,,,,,,,,,,,,,,,,,,,,,,,,0,26,26,47,,,,,,,,,,,,,,,,,,,,,,,,,,,,,,,,,,,,,,852.4571398999542,1.0110020004212856,853.4644959997386,853.5477090999484,854.3475000998005,854.4473719997332,854.4473719997332,854.4473719997332,left,1,1.4733039997518063,,,,,,,,,,,,,,,,,,,,,,,,,,,,,,,,,,,,,001,001,2023-11-10_14h51.42.577,ETproject_Chi_2023.1.1,2023.1.1,60.0628736516048,
30,Month,三月,六月,,Vert,late,down,image/Chi_late.png,"[0, 0.4]","[0, -0.4]",3,congruent,,,,,,,,,,,,,,,,,,,,,,,,,,,,,,0,27,27,14,,,,,,,,,,,,,,,,,,,,,,,,,,,,,,,,,,,,,,855.9610918005928,1.011634400114417,856.9633069997653,857.0467889001593,857.8464246001095,857.9464330999181,857.9464330999181,857.9464330999181,down,1,0.7434470998123288,,,,,,,,,,,,,,,,,,,,,,,,,,,,,,,,,,,,,001,001,2023-11-10_14h51.42.577,ETproject_Chi_2023.1.1,2023.1.1,60.0628736516048,
12,Month,二月,四月,,Hori,late,right,image/Chi_late.png,"[-0.4, 0]","[0.4, 0]",2,congruent,,,,,,,,,,,,,,,,,,,,,,,,,,,,,,0,28,28,21,,,,,,,,,,,,,,,,,,,,,,,,,,,,,,,,,,,,,,858.7235366003588,1.0109895002096891,859.7291788002476,859.8125005001202,860.6122203003615,860.7119255000725,860.7119255000725,860.7119255000725,right,1,0.8186122002080083,,,,,,,,,,,,,,,,,,,,,,,,,,,,,,,,,,,,,001,001,2023-11-10_14h51.42.577,ETproject_Chi_2023.1.1,2023.1.1,60.0628736516048,
15,Month,七月,十一月 ,,Hori,late,right,image/Chi_late.png,"[-0.4, 0]","[0.4, 0]",4,congruent,,,,,,,,,,,,,,,,,,,,,,,,,,,,,,0,29,29,15,,,,,,,,,,,,,,,,,,,,,,,,,,,,,,,,,,,,,,861.56595559977,1.0156228002160788,862.5780929997563,862.6615273002535,863.4612386999652,863.5610456997529,863.5610456997529,863.5610456997529,right,1,0.9045564001426101,,,,,,,,,,,,,,,,,,,,,,,,,,,,,,,,,,,,,001,001,2023-11-10_14h51.42.577,ETproject_Chi_2023.1.1,2023.1.1,60.0628736516048,
33,Month,十一月 ,十二月,,Vert,early,up,image/Chi_early.png,"[0, 0.4]","[0, -0.4]",1,congruent,,,,,,,,,,,,,,,,,,,,,,,,,,,,,,0,30,30,2,,,,,,,,,,,,,,,,,,,,,,,,,,,,,,,,,,,,,,864.5025315005332,1.0148419998586178,865.5106461998075,865.593887200579,866.3934752000496,866.4934767000377,866.4934767000377,866.4934767000377,up,1,1.13247639965266,,,,,,,,,,,,,,,,,,,,,,,,,,,,,,,,,,,,,001,001,2023-11-10_14h51.42.577,ETproject_Chi_2023.1.1,2023.1.1,60.0628736516048,
64,Month,四月,一月,,Vert,late,up,image/Chi_late.png,"[0, 0.4]","[0, -0.4]",3,incongruent,,,,,,,,,,,,,,,,,,,,,,,,,,,,,,0,31,31,24,,,,,,,,,,,,,,,,,,,,,,,,,,,,,,,,,,,,,,867.6518988003954,1.0146685997024179,868.6593976998702,868.7428831001744,869.5425335997716,869.6424796003848,869.6424796003848,869.6424796003848,up,1,1.3996716998517513,,,,,,,,,,,,,,,,,,,,,,,,,,,,,,,,,,,,,001,001,2023-11-10_14h51.42.577,ETproject_Chi_2023.1.1,2023.1.1,60.0628736516048,
105,Week,星期二,星期五,,Hori,late,right,image/Chi_late.png,"[-0.4, 0]","[0.4, 0]",3,congruent,,,,,,,,,,,,,,,,,,,,,,,,,,,,,,0,32,32,42,,,,,,,,,,,,,,,,,,,,,,,,,,,,,,,,,,,,,,871.0639915000647,1.015641000121832,872.0750927999616,872.1583309005946,872.9581639003009,873.0581985004246,873.0581985004246,873.0581985004246,right,1,1.4626334998756647,,,,,,,,,,,,,,,,,,,,,,,,,,,,,,,,,,,,,001,001,2023-11-10_14h51.42.577,ETproject_Chi_2023.1.1,2023.1.1,60.0628736516048,
122,Week,星期五,星期六,,Vert,late,down,image/Chi_late.png,"[0, 0.4]","[0, -0.4]",1,congruent,,,,,,,,,,,,,,,,,,,,,,,,,,,,,,0,33,33,38,,,,,,,,,,,,,,,,,,,,,,,,,,,,,,,,,,,,,,874.5498751001433,1.012475099414587,875.5573749002069,875.6404475001618,876.4403621004894,876.5401897998527,876.5401897998527,876.5401897998527,down,1,1.053137299604714,,,,,,,,,,,,,,,,,,,,,,,,,,,,,,,,,,,,,001,001,2023-11-10_14h51.42.577,ETproject_Chi_2023.1.1,2023.1.1,60.0628736516048,
61,Month,七月,六月,,Hori,late,left,image/Chi_late.png,"[-0.4, 0]","[0.4, 0]",1,incongruent,,,,,,,,,,,,,,,,,,,,,,,,,,,,,,0,34,34,17,,,,,,,,,,,,,,,,,,,,,,,,,,,,,,,,,,,,,,877.6331353001297,1.0104810995981097,878.6395477997139,878.7228621998802,879.5224927999079,879.6224359003827,879.6224359003827,879.6224359003827,left,1,2.0264387000352144,,,,,,,,,,,,,,,,,,,,,,,,,,,,,,,,,,,,,001,001,2023-11-10_14h51.42.577,ETproject_Chi_2023.1.1,2023.1.1,60.0628736516048,
52,Month,十月 ,七月,,Hori,late,left,image/Chi_late.png,"[-0.4, 0]","[0.4, 0]",3,incongruent,,,,,,,,,,,,,,,,,,,,,,,,,,,,,,0,35,35,41,,,,,,,,,,,,,,,,,,,,,,,,,,,,,,,,,,,,,,881.6801958000287,1.011995299719274,882.6884564999491,882.7714360998943,883.5712395003065,883.6711226003245,883.6711226003245,883.6711226003245,left,1,1.3382979994639754,,,,,,,,,,,,,,,,,,,,,,,,,,,,,,,,,,,,,001,001,2023-11-10_14h51.42.577,ETproject_Chi_2023.1.1,2023.1.1,60.0628736516048,
127,Week,星期四,星期三 ,,Hori,early,right,image/Chi_early.png,"[-0.4, 0]","[0.4, 0]",1,incongruent,,,,,,,,,,,,,,,,,,,,,,,,,,,,,,0,36,36,48,,,,,,,,,,,,,,,,,,,,,,,,,,,,,,,,,,,,,,885.0473245000467,1.0157968001440167,886.0537144001573,886.1370700998232,886.9368384005502,887.0367747005075,887.0367747005075,887.0367747005075,right,1,1.7329911002889276,,,,,,,,,,,,,,,,,,,,,,,,,,,,,,,,,,,,,001,001,2023-11-10_14h51.42.577,ETproject_Chi_2023.1.1,2023.1.1,60.0628736516048,
38,Month,十月 ,六月,,Hori,early,right,image/Chi_early.png,"[-0.4, 0]","[0.4, 0]",4,incongruent,,,,,,,,,,,,,,,,,,,,,,,,,,,,,,0,37,37,18,,,,,,,,,,,,,,,,,,,,,,,,,,,,,,,,,,,,,,888.7939701005816,1.0116058001294732,889.802730999887,889.8857319997624,890.6856276001781,890.7854572003707,890.7854572003707,890.7854572003707,right,1,2.6961650997400284,,,,,,,,,,,,,,,,,,,,,,,,,,,,,,,,,,,,,001,001,2023-11-10_14h51.42.577,ETproject_Chi_2023.1.1,2023.1.1,60.0628736516048,
55,Month,七月,五月,,Hori,late,left,image/Chi_late.png,"[-0.4, 0]","[0.4, 0]",2,incongruent,,,,,,,,,,,,,,,,,,,,,,,,,,,,,,0,38,38,11,,,,,,,,,,,,,,,,,,,,,,,,,,,,,,,,,,,,,,893.5103617003188,0.9991637002676725,894.5176774002612,894.6009537000209,895.4005967006087,895.5006323000416,895.5006323000416,895.5006323000416,left,1,1.5811908999457955,,,,,,,,,,,,,,,,,,,,,,,,,,,,,,,,,,,,,001,001,2023-11-10_14h51.42.577,ETproject_Chi_2023.1.1,2023.1.1,60.0628736516048,
106,Week,星期三 ,星期五,,Hori,late,right,image/Chi_late.png,"[-0.4, 0]","[0.4, 0]",2,congruent,,,,,,,,,,,,,,,,,,,,,,,,,,,,,,0,39,39,33,,,,,,,,,,,,,,,,,,,,,,,,,,,,,,,,,,,,,,897.1102605005726,1.0107610998675227,898.1163236005232,898.1997722005472,898.9994328999892,899.0993771003559,899.0993771003559,899.0993771003559,right,1,1.022850999608636,,,,,,,,,,,,,,,,,,,,,,,,,,,,,,,,,,,,,001,001,2023-11-10_14h51.42.577,ETproject_Chi_2023.1.1,2023.1.1,60.0628736516048,
32,Month,十月 ,十一月 ,,Vert,early,up,image/Chi_early.png,"[0, 0.4]","[0, -0.4]",1,congruent,,,,,,,,,,,,,,,,,,,,,,,,,,,,,,0,40,40,44,,,,,,,,,,,,,,,,,,,,,,,,,,,,,,,,,,,,,,900.161479100585,1.0111092999577522,901.165434599854,901.2488598003983,902.0485203005373,902.1486034002155,902.1486034002155,902.1486034002155,up,1,1.2613599002361298,,,,,,,,,,,,,,,,,,,,,,,,,,,,,,,,,,,,,001,001,2023-11-10_14h51.42.577,ETproject_Chi_2023.1.1,2023.1.1,60.0628736516048,
143,Week,星期日,星期五,,Vert,early,down,image/Chi_early.png,"[0, 0.4]","[0, -0.4]",2,incongruent,,,,,,,,,,,,,,,,,,,,,,,,,,,,,,0,41,41,22,,,,,,,,,,,,,,,,,,,,,,,,,,,,,,,,,,,,,,903.4421894997358,1.0098563004285097,904.4476455999538,904.5310297003016,905.3307653004304,905.4306755000725,905.4306755000725,905.4306755000725,down,1,1.2341366996988654,,,,,,,,,,,,,,,,,,,,,,,,,,,,,,,,,,,,,001,001,2023-11-10_14h51.42.577,ETproject_Chi_2023.1.1,2023.1.1,60.0628736516048,
11,Month,一月,三月,,Hori,late,right,image/Chi_late.png,"[-0.4, 0]","[0.4, 0]",2,congruent,,,,,,,,,,,,,,,,,,,,,,,,,,,,,,0,42,42,5,,,,,,,,,,,,,,,,,,,,,,,,,,,,,,,,,,,,,,906.7099063005298,1.0102219991385937,907.7133061001077,907.7966419002041,908.596288099885,908.6962655996904,908.6962655996904,908.6962655996904,right,1,1.1848162990063429,,,,,,,,,,,,,,,,,,,,,,,,,,,,,,,,,,,,,001,001,2023-11-10_14h51.42.577,ETproject_Chi_2023.1.1,2023.1.1,60.0628736516048,
36,Month,八月,四月,,Hori,early,right,image/Chi_early.png,"[-0.4, 0]","[0.4, 0]",4,incongruent,,,,,,,,,,,,,,,,,,,,,,,,,,,,,,0,43,43,27,,,,,,,,,,,,,,,,,,,,,,,,,,,,,,,,,,,,,,909.9248141003773,1.012108700349927,910.9288475997746,911.0120580000803,911.8121132999659,911.911775900051,911.911775900051,911.911775900051,right,1,1.073998199775815,,,,,,,,,,,,,,,,,,,,,,,,,,,,,,,,,,,,,001,001,2023-11-10_14h51.42.577,ETproject_Chi_2023.1.1,2023.1.1,60.0628736516048,
46,Month,三月,二月,,Hori,early,right,image/Chi_early.png,"[-0.4, 0]","[0.4, 0]",1,incongruent,,,,,,,,,,,,,,,,,,,,,,,,,,,,,,0,44,44,36,,,,,,,,,,,,,,,,,,,,,,,,,,,,,,,,,,,,,,913.0193188004196,1.0119639998301864,914.0279745999724,914.111160799861,914.9108709003776,915.0107982996851,915.0107982996851,915.0107982996851,right,1,0.8469954002648592,,,,,,,,,,,,,,,,,,,,,,,,,,,,,,,,,,,,,001,001,2023-11-10_14h51.42.577,ETproject_Chi_2023.1.1,2023.1.1,60.0628736516048,
47,Month,十一月 ,七月,,Hori,late,left,image/Chi_late.png,"[-0.4, 0]","[0.4, 0]",4,incongruent,,,,,,,,,,,,,,,,,,,,,,,,,,,,,,0,45,45,37,,,,,,,,,,,,,,,,,,,,,,,,,,,,,,,,,,,,,,915.8905568001792,1.011017200537026,916.8934024004266,916.9769219001755,917.7766789002344,917.8765732999891,917.8765732999891,917.8765732999891,left,1,0.8288041995838284,,,,,,,,,,,,,,,,,,,,,,,,,,,,,,,,,,,,,001,001,2023-11-10_14h51.42.577,ETproject_Chi_2023.1.1,2023.1.1,60.0628736516048,
118,Week,星期一,星期三 ,,Vert,late,down,image/Chi_late.png,"[0, 0.4]","[0, -0.4]",2,congruent,,,,,,,,,,,,,,,,,,,,,,,,,,,,,,0,46,46,43,,,,,,,,,,,,,,,,,,,,,,,,,,,,,,,,,,,,,,918.7309210002422,0.9991109995171428,919.742625400424,919.8259351998568,920.625680600293,920.7253774004057,920.7253774004057,920.7253774004057,down,1,0.7560483999550343,,,,,,,,,,,,,,,,,,,,,,,,,,,,,,,,,,,,,001,001,2023-11-10_14h51.42.577,ETproject_Chi_2023.1.1,2023.1.1,60.0628736516048,
133,Week,星期五,星期二,,Hori,late,left,image/Chi_late.png,"[-0.4, 0]","[0.4, 0]",3,incongruent,,,,,,,,,,,,,,,,,,,,,,,,,,,,,,0,47,47,49,,,,,,,,,,,,,,,,,,,,,,,,,,,,,,,,,,,,,,921.5153107000515,1.0152070000767708,922.5249704001471,922.6085139000788,923.4080384001136,923.5081702005118,923.5081702005118,923.5081702005118,left,1,0.6526894997805357,,,,,,,,,,,,,,,,,,,,,,,,,,,,,,,,,,,,,001,001,2023-11-10_14h51.42.577,ETproject_Chi_2023.1.1,2023.1.1,60.0628736516048,
3,Month,三月,五月,,Hori,early,left,image/Chi_early.png,"[-0.4, 0]","[0.4, 0]",2,congruent,,,,,,,,,,,,,,,,,,,,,,,,,,,,,,0,48,48,29,,,,,,,,,,,,,,,,,,,,,,,,,,,,,,,,,,,,,,924.2059524999931,1.0114259999245405,925.2074968004599,925.2907177004963,926.0905956001952,926.1905896002427,926.1905896002427,926.1905896002427,left,1,1.9792133998125792,,,,,,,,,,,,,,,,,,,,,,,,,,,,,,,,,,,,,001,001,2023-11-10_14h51.42.577,ETproject_Chi_2023.1.1,2023.1.1,60.0628736516048,
128,Week,星期日,星期四,,Hori,early,right,image/Chi_early.png,"[-0.4, 0]","[0.4, 0]",3,incongruent,,,,,,,,,,,,,,,,,,,,,,,,,,,,,,0,49,49,35,,,,,,,,,,,,,,,,,,,,,,,,,,,,,,,,,,,,,,928.194703400135,1.0152268996462226,929.2062787003815,929.2894608005881,930.0891791004688,930.1891742004082,930.1891742004082,930.1891742004082,right,1,1.1639978000894189,,,,,,,,,,,,,,,,,,,,,,,,,,,,,,,,,,,,,001,001,2023-11-10_14h51.42.577,ETproject_Chi_2023.1.1,2023.1.1,60.0628736516048,
,,,,,,,,,,,,,,,,,,,,,,,,,,,,,,,,,,,,,,,,,,,,,,,,,,,,,,,,,,,,,,,,,,,,,,,,,,,,,,,,,,,,,,,,,,,,,,,,,,,,,,,,,,,,,,,,,,,,,,,,931.3724161004648,931.3724161004648,space,7.277647299692035,,,,,,,001,001,2023-11-10_14h51.42.577,ETproject_Chi_2023.1.1,2023.1.1,60.0628736516048,
,,,,,,,,,,,,,Spring 4.jpg,这是秋天吗？,否,Right,Break_material/Image/Spring 4.jpg,,,,,,,,,,,,,,,,,,,,,,,,,,,,,0,0,0,3,,,,,,,,,,,,,,,,,,,,,,,,,,,,,,,,,,,,,,,,,,,,,,,,,938.9001997001469,942.6559926001355,942.9017577003688,944.6677090004086,944.6677090004086,944.6677090004086,944.6677090004086,right,0,0.4531541997566819,,,,,,,,,,,,,,,,,,,,,,,001,001,2023-11-10_14h51.42.577,ETproject_Chi_2023.1.1,2023.1.1,60.0628736516048,
,,,,,,,,,,,,,Spring 2.jpg,这是冬天吗？,否,Right,Break_material/Image/Spring 2.jpg,,,,,,,,,,,,,,,,,,,,,,,,,,,,,0,1,1,1,,,,,,,,,,,,,,,,,,,,,,,,,,,,,,,,,,,,,,,,,,,,,,,,,945.2289259005338,949.1364671997726,949.2328709000722,951.149065900594,951.149065900594,951.149065900594,951.149065900594,right,0,0.44510329980403185,,,,,,,,,,,,,,,,,,,,,,,001,001,2023-11-10_14h51.42.577,ETproject_Chi_2023.1.1,2023.1.1,60.0628736516048,
,,,,,,,,,,,,,Spring 5.jpg,这是冬天吗？,否,Right,Break_material/Image/Spring 5.jpg,,,,,,,,,,,,,,,,,,,,,,,,,,,,,0,2,2,4,,,,,,,,,,,,,,,,,,,,,,,,,,,,,,,,,,,,,,,,,,,,,,,,,952.0848192004487,955.6018187999725,956.0806026002392,957.6134997000918,957.6134997000918,957.6134997000918,957.6134997000918,right,0,1.2757576005533338,,,,,,,,,,,,,,,,,,,,,,,001,001,2023-11-10_14h51.42.577,ETproject_Chi_2023.1.1,2023.1.1,60.0628736516048,
,,,,,,,,,,,,,Spring 1.jpg,这是春天吗？,是,Left,Break_material/Image/Spring 1.jpg,,,,,,,,,,,,,,,,,,,,,,,,,,,,,0,3,3,0,,,,,,,,,,,,,,,,,,,,,,,,,,,,,,,,,,,,,,,,,,,,,,,,,959.1266280002892,962.8985612997785,963.1284106997773,964.9109423002228,964.9109423002228,964.9109423002228,964.9109423002228,left,0,0.37765679974108934,,,,,,,,,,,,,,,,,,,,,,,001,001,2023-11-10_14h51.42.577,ETproject_Chi_2023.1.1,2023.1.1,60.0628736516048,
,,,,,,,,,,,,,Spring 3.jpg,这是夏天吗？,否,Right,Break_material/Image/Spring 3.jpg,,,,,,,,,,,,,,,,,,,,,,,,,,,,,0,4,4,2,,,,,,,,,,,,,,,,,,,,,,,,,,,,,,,,,,,,,,,,,,,,,,,,,965.3675605999306,969.2966208998114,969.3762491997331,971.308924600482,971.308924600482,971.308924600482,971.308924600482,left,0,0.42807869985699654,,,,,,,,,,,,,,,,,,,,,,,001,001,2023-11-10_14h51.42.577,ETproject_Chi_2023.1.1,2023.1.1,60.0628736516048,
,,,,,,,,,,,,,,,,,,,,,,,,,,,,,,,,,,,,,,,,,,,,,,,,,,,,,,,,,,,,,,,,,,,,,,,,,,,,,,,,,,,,,,,,,,,,,,,,,,,,,,,,,,,,,,,,,,,,,,,,,,,,971.7589034000412,971.7589034000412,space,3.001900900155306,,,001,001,2023-11-10_14h51.42.577,ETproject_Chi_2023.1.1,2023.1.1,60.0628736516048,
67,Month,七月,四月,,Vert,late,up,image/Chi_late.png,"[0, 0.4]","[0, -0.4]",3,incongruent,,,,,,,,,,,,,,,,,,,,,,,,,,,,,,,,,,,,,,0,0,0,6,,,,,,,,,,,,,,,,,,,,,,,,,,,,,,974.8174751996994,0.9991288995370269,975.8240461004898,975.8908294998109,976.6904140999541,976.7905361996964,976.7905361996964,976.7905361996964,up,1,0.8277463000267744,,,,,,,,,,,,,,,,,,,,,,,,,,,,,,,,,,,,,001,001,2023-11-10_14h51.42.577,ETproject_Chi_2023.1.1,2023.1.1,60.0628736516048,
35,Month,五月,七月,,Vert,late,down,image/Chi_late.png,"[0, 0.4]","[0, -0.4]",2,congruent,,,,,,,,,,,,,,,,,,,,,,,,,,,,,,,,,,,,,,0,1,1,4,,,,,,,,,,,,,,,,,,,,,,,,,,,,,,977.6481101997197,1.0132841998711228,978.6566511001438,978.7398330997676,979.5396936004981,979.6393964998424,979.6393964998424,979.6393964998424,down,1,1.0012131994590163,,,,,,,,,,,,,,,,,,,,,,,,,,,,,,,,,,,,,001,001,2023-11-10_14h51.42.577,ETproject_Chi_2023.1.1,2023.1.1,60.0628736516048,
149,Week,星期六,星期四,,Vert,late,up,image/Chi_late.png,"[0, 0.4]","[0, -0.4]",2,incongruent,,,,,,,,,,,,,,,,,,,,,,,,,,,,,,,,,,,,,,0,2,2,10,,,,,,,,,,,,,,,,,,,,,,,,,,,,,,981.6799570005387,0.9990983996540308,982.6884765001014,982.7717931000516,983.5714587997645,983.6715978002176,983.6715978002176,983.6715978002176,up,1,1.2176140993833542,,,,,,,,,,,,,,,,,,,,,,,,,,,,,,,,,,,,,001,001,2023-11-10_14h51.42.577,ETproject_Chi_2023.1.1,2023.1.1,60.0628736516048,
28,Month,一月,四月,,Vert,late,down,image/Chi_late.png,"[0, 0.4]","[0, -0.4]",3,congruent,,,,,,,,,,,,,,,,,,,,,,,,,,,,,,,,,,,,,,0,3,3,9,,,,,,,,,,,,,,,,,,,,,,,,,,,,,,984.9281368004158,1.0140913994982839,985.9374855002388,986.0206775004044,986.820436200127,986.9204839002341,986.9204839002341,986.9204839002341,down,1,0.8259851997718215,,,,,,,,,,,,,,,,,,,,,,,,,,,,,,,,,,,,,001,001,2023-11-10_14h51.42.577,ETproject_Chi_2023.1.1,2023.1.1,60.0628736516048,
33,Month,六月,九月 ,,Vert,late,down,image/Chi_late.png,"[0, 0.4]","[0, -0.4]",3,congruent,,,,,,,,,,,,,,,,,,,,,,,,,,,,,,,,,,,,,,0,4,4,44,,,,,,,,,,,,,,,,,,,,,,,,,,,,,,987.7793650999665,1.0110205002129078,988.7864701002836,988.8699169000611,989.6695745997131,989.7695952998474,989.7695952998474,989.7695952998474,down,1,1.0166978994384408,,,,,,,,,,,,,,,,,,,,,,,,,,,,,,,,,,,,,001,001,2023-11-10_14h51.42.577,ETproject_Chi_2023.1.1,2023.1.1,60.0628736516048,
6,Month,六月,七月,,Hori,early,left,image/Chi_early.png,"[-0.4, 0]","[0.4, 0]",1,congruent,,,,,,,,,,,,,,,,,,,,,,,,,,,,,,,,,,,,,,0,5,5,33,,,,,,,,,,,,,,,,,,,,,,,,,,,,,,991.8315010005608,1.0155914993956685,992.8352052997798,992.9187519000843,993.7182478001341,993.8182495003566,993.8182495003566,993.8182495003566,left,1,0.9280228996649384,,,,,,,,,,,,,,,,,,,,,,,,,,,,,,,,,,,,,001,001,2023-11-10_14h51.42.577,ETproject_Chi_2023.1.1,2023.1.1,60.0628736516048,
120,Week,星期三 ,星期四,,Vert,late,down,image/Chi_late.png,"[0, 0.4]","[0, -0.4]",1,congruent,,,,,,,,,,,,,,,,,,,,,,,,,,,,,,,,,,,,,,0,6,6,46,,,,,,,,,,,,,,,,,,,,,,,,,,,,,,994.7754870997742,0.9991409005597234,995.7843101006001,995.867490099743,996.6673255003989,996.7673164000735,996.7673164000735,996.7673164000735,down,1,0.9228769997134805,,,,,,,,,,,,,,,,,,,,,,,,,,,,,,,,,,,,,001,001,2023-11-10_14h51.42.577,ETproject_Chi_2023.1.1,2023.1.1,60.0628736516048,
44,Month,八月,四月,,Hori,late,left,image/Chi_late.png,"[-0.4, 0]","[0.4, 0]",4,incongruent,,,,,,,,,,,,,,,,,,,,,,,,,,,,,,,,,,,,,,0,7,7,40,,,,,,,,,,,,,,,,,,,,,,,,,,,,,,997.7228492004797,1.0141356997191906,998.7332102004439,998.8167217997834,999.6163400001824,999.7163572004065,999.7163572004065,999.7163572004065,left,1,1.2214860003441572,,,,,,,,,,,,,,,,,,,,,,,,,,,,,,,,,,,,,001,001,2023-11-10_14h51.42.577,ETproject_Chi_2023.1.1,2023.1.1,60.0628736516048,
2,Month,二月,四月,,Hori,early,left,image/Chi_early.png,"[-0.4, 0]","[0.4, 0]",2,congruent,,,,,,,,,,,,,,,,,,,,,,,,,,,,,,,,,,,,,,0,8,8,5,,,,,,,,,,,,,,,,,,,,,,,,,,,,,,1000.9718551002443,1.0155463004484773,1001.982044399716,1002.0655509000644,1002.865145499818,1002.9650782998651,1002.9650782998651,1002.9650782998651,left,1,0.9087405996397138,,,,,,,,,,,,,,,,,,,,,,,,,,,,,,,,,,,,,001,001,2023-11-10_14h51.42.577,ETproject_Chi_2023.1.1,2023.1.1,60.0628736516048,
125,Week,星期四,星期一,,Hori,early,right,image/Chi_early.png,"[-0.4, 0]","[0.4, 0]",3,incongruent,,,,,,,,,,,,,,,,,,,,,,,,,,,,,,,,,,,,,,0,9,9,31,,,,,,,,,,,,,,,,,,,,,,,,,,,,,,1003.9076904002577,1.0125478999689221,1004.9145839000121,1004.9977911999449,1005.7975989002734,1005.897504100576,1005.897504100576,1005.897504100576,right,1,1.1125616999343038,,,,,,,,,,,,,,,,,,,,,,,,,,,,,,,,,,,,,001,001,2023-11-10_14h51.42.577,ETproject_Chi_2023.1.1,2023.1.1,60.0628736516048,
56,Month,五月,二月,,Vert,early,down,image/Chi_early.png,"[0, 0.4]","[0, -0.4]",3,incongruent,,,,,,,,,,,,,,,,,,,,,,,,,,,,,,,,,,,,,,0,10,10,3,,,,,,,,,,,,,,,,,,,,,,,,,,,,,,1007.0398132000118,1.01052900031209,1008.0467701004818,1008.1300464002416,1008.9300055997446,1009.0298811998218,1009.0298811998218,1009.0298811998218,down,1,1.4028900004923344,,,,,,,,,,,,,,,,,,,,,,,,,,,,,,,,,,,,,001,001,2023-11-10_14h51.42.577,ETproject_Chi_2023.1.1,2023.1.1,60.0628736516048,
121,Week,星期四,星期日,,Vert,late,down,image/Chi_late.png,"[0, 0.4]","[0, -0.4]",3,congruent,,,,,,,,,,,,,,,,,,,,,,,,,,,,,,,,,,,,,,0,11,11,22,,,,,,,,,,,,,,,,,,,,,,,,,,,,,,1010.4704539999366,1.0158262997865677,1011.479009100236,1011.5622808998451,1012.362196800299,1012.4620909998193,1012.4620909998193,1012.4620909998193,up,0,2.211180399172008,,,,,,,,,,,,,,,,,,,,,,,,,,,,,,,,,,,,,001,001,2023-11-10_14h51.42.577,ETproject_Chi_2023.1.1,2023.1.1,60.0628736516048,
141,Week,星期四,星期三 ,,Vert,early,down,image/Chi_early.png,"[0, 0.4]","[0, -0.4]",1,incongruent,,,,,,,,,,,,,,,,,,,,,,,,,,,,,,,,,,,,,,0,12,12,7,,,,,,,,,,,,,,,,,,,,,,,,,,,,,,1014.7055836003274,1.0116451000794768,1015.7109412997961,1015.7943181004375,1016.5941302999854,1016.6940854005516,1016.6940854005516,1016.6940854005516,down,1,1.2279559997841716,,,,,,,,,,,,,,,,,,,,,,,,,,,,,,,,,,,,,001,001,2023-11-10_14h51.42.577,ETproject_Chi_2023.1.1,2023.1.1,60.0628736516048,
60,Month,六月,五月,,Hori,late,left,image/Chi_late.png,"[-0.4, 0]","[0.4, 0]",1,incongruent,,,,,,,,,,,,,,,,,,,,,,,,,,,,,,,,,,,,,,0,13,13,43,,,,,,,,,,,,,,,,,,,,,,,,,,,,,,1017.9579229997471,1.0119126997888088,1018.9597180997953,1019.043247600086,1019.8430120004341,1019.9428070001304,1019.9428070001304,1019.9428070001304,left,1,2.113880000077188,,,,,,,,,,,,,,,,,,,,,,,,,,,,,,,,,,,,,001,001,2023-11-10_14h51.42.577,ETproject_Chi_2023.1.1,2023.1.1,60.0628736516048,
22,Month,二月,四月,,Vert,early,up,image/Chi_early.png,"[0, 0.4]","[0, -0.4]",2,congruent,,,,,,,,,,,,,,,,,,,,,,,,,,,,,,,,,,,,,,0,14,14,39,,,,,,,,,,,,,,,,,,,,,,,,,,,,,,1023.0841426998377,1.015014300122857,1024.0913792997599,1024.1749643003568,1024.974517500028,1025.0744746001437,1025.0744746001437,1025.0744746001437,up,1,0.6870643999427557,,,,,,,,,,,,,,,,,,,,,,,,,,,,,,,,,,,,,001,001,2023-11-10_14h51.42.577,ETproject_Chi_2023.1.1,2023.1.1,60.0628736516048,
133,Week,星期三 ,星期二,,Hori,late,left,image/Chi_late.png,"[-0.4, 0]","[0.4, 0]",1,incongruent,,,,,,,,,,,,,,,,,,,,,,,,,,,,,,,,,,,,,,0,15,15,30,,,,,,,,,,,,,,,,,,,,,,,,,,,,,,1025.8051516003907,1.011463699862361,1026.8072415003553,1026.890628799796,1027.690258800052,1027.7902969997376,1027.7902969997376,1027.7902969997376,left,1,0.7783958995714784,,,,,,,,,,,,,,,,,,,,,,,,,,,,,,,,,,,,,001,001,2023-11-10_14h51.42.577,ETproject_Chi_2023.1.1,2023.1.1,60.0628736516048,
17,Month,一月,五月,,Vert,early,up,image/Chi_early.png,"[0, 0.4]","[0, -0.4]",4,congruent,,,,,,,,,,,,,,,,,,,,,,,,,,,,,,,,,,,,,,0,16,16,35,,,,,,,,,,,,,,,,,,,,,,,,,,,,,,1028.6049987999722,1.0129168005660176,1029.6063465001062,1029.689926800318,1030.489376500249,1030.589414300397,1030.589414300397,1030.589414300397,up,1,0.9409933993592858,,,,,,,,,,,,,,,,,,,,,,,,,,,,,,,,,,,,,001,001,2023-11-10_14h51.42.577,ETproject_Chi_2023.1.1,2023.1.1,60.0628736516048,
79,Month,三月,二月,,Vert,late,up,image/Chi_late.png,"[0, 0.4]","[0, -0.4]",1,incongruent,,,,,,,,,,,,,,,,,,,,,,,,,,,,,,,,,,,,,,0,17,17,8,,,,,,,,,,,,,,,,,,,,,,,,,,,,,,1031.5656975004822,1.0129372999072075,1032.571992800571,1032.6554963001981,1033.4551421003416,1033.555114599876,1033.555114599876,1033.555114599876,up,1,1.0380744999274611,,,,,,,,,,,,,,,,,,,,,,,,,,,,,,,,,,,,,001,001,2023-11-10_14h51.42.577,ETproject_Chi_2023.1.1,2023.1.1,60.0628736516048,
100,Week,星期四,星期六,,Hori,early,left,image/Chi_early.png,"[-0.4, 0]","[0.4, 0]",2,congruent,,,,,,,,,,,,,,,,,,,,,,,,,,,,,,,,,,,,,,0,18,18,11,,,,,,,,,,,,,,,,,,,,,,,,,,,,,,1034.6320650000125,0.999392599798739,1035.6377129005268,1035.720915400423,1036.5207333005965,1036.6208875998855,1036.6208875998855,1036.6208875998855,left,1,0.9093009000644088,,,,,,,,,,,,,,,,,,,,,,,,,,,,,,,,,,,,,001,001,2023-11-10_14h51.42.577,ETproject_Chi_2023.1.1,2023.1.1,60.0628736516048,
132,Week,星期三 ,星期一,,Hori,late,left,image/Chi_late.png,"[-0.4, 0]","[0.4, 0]",2,incongruent,,,,,,,,,,,,,,,,,,,,,,,,,,,,,,,,,,,,,,0,19,19,2,,,,,,,,,,,,,,,,,,,,,,,,,,,,,,1037.5652114003897,0.9991560997441411,1038.56998569984,1038.6535128997639,1039.453160200268,1039.5531264003366,1039.5531264003366,1039.5531264003366,left,1,0.8806318994611502,,,,,,,,,,,,,,,,,,,,,,,,,,,,,,,,,,,,,001,001,2023-11-10_14h51.42.577,ETproject_Chi_2023.1.1,2023.1.1,60.0628736516048,
27,Month,七月,九月 ,,Vert,early,up,image/Chi_early.png,"[0, 0.4]","[0, -0.4]",2,congruent,,,,,,,,,,,,,,,,,,,,,,,,,,,,,,,,,,,,,,0,20,20,17,,,,,,,,,,,,,,,,,,,,,,,,,,,,,,1040.4611817002296,1.0142768993973732,1041.469190900214,1041.5524850003421,1042.3520521000028,1042.4521188000217,1042.4521188000217,1042.4521188000217,up,1,1.0292698992416263,,,,,,,,,,,,,,,,,,,,,,,,,,,,,,,,,,,,,001,001,2023-11-10_14h51.42.577,ETproject_Chi_2023.1.1,2023.1.1,60.0628736516048,
41,Month,八月,九月 ,,Vert,late,down,image/Chi_late.png,"[0, 0.4]","[0, -0.4]",1,congruent,,,,,,,,,,,,,,,,,,,,,,,,,,,,,,,,,,,,,,0,21,21,23,,,,,,,,,,,,,,,,,,,,,,,,,,,,,,1043.5085297003388,1.014666099101305,1044.5181440003216,1044.6013959003612,1045.4012561002746,1045.50111270044,1045.50111270044,1045.50111270044,down,1,1.3487423993647099,,,,,,,,,,,,,,,,,,,,,,,,,,,,,,,,,,,,,001,001,2023-11-10_14h51.42.577,ETproject_Chi_2023.1.1,2023.1.1,60.0628736516048,
1,Month,一月,五月,,Hori,early,left,image/Chi_early.png,"[-0.4, 0]","[0.4, 0]",4,congruent,,,,,,,,,,,,,,,,,,,,,,,,,,,,,,,,,,,,,,0,22,22,34,,,,,,,,,,,,,,,,,,,,,,,,,,,,,,1046.876987900585,1.014551100321114,1047.8838149998337,1047.9669963996857,1048.7666672002524,1048.8667310997844,1048.8667310997844,1048.8667310997844,left,1,0.678694199770689,,,,,,,,,,,,,,,,,,,,,,,,,,,,,,,,,,,,,001,001,2023-11-10_14h51.42.577,ETproject_Chi_2023.1.1,2023.1.1,60.0628736516048,
20,Month,十月 ,十二月,,Hori,late,right,image/Chi_late.png,"[-0.4, 0]","[0.4, 0]",2,congruent,,,,,,,,,,,,,,,,,,,,,,,,,,,,,,,,,,,,,,0,23,23,24,,,,,,,,,,,,,,,,,,,,,,,,,,,,,,1050.5763982003555,0.9991995003074408,1051.5825359001756,1051.6658332999796,1052.4656623005867,1052.5655314996839,1052.5655314996839,1052.5655314996839,right,1,0.5797584997490048,,,,,,,,,,,,,,,,,,,,,,,,,,,,,,,,,,,,,001,001,2023-11-10_14h51.42.577,ETproject_Chi_2023.1.1,2023.1.1,60.0628736516048,
73,Month,八月,七月,,Vert,early,down,image/Chi_early.png,"[0, 0.4]","[0, -0.4]",1,incongruent,,,,,,,,,,,,,,,,,,,,,,,,,,,,,,,,,,,,,,0,24,24,29,,,,,,,,,,,,,,,,,,,,,,,,,,,,,,1053.181029399857,1.0092091001570225,1054.1816902998835,1054.2649384997785,1055.0645284000784,1055.1645590998232,1055.1645590998232,1055.1645590998232,down,1,1.7491280995309353,,,,,,,,,,,,,,,,,,,,,,,,,,,,,,,,,,,,,001,001,2023-11-10_14h51.42.577,ETproject_Chi_2023.1.1,2023.1.1,60.0628736516048,
98,Week,星期二,星期四,,Hori,early,left,image/Chi_early.png,"[-0.4, 0]","[0.4, 0]",2,congruent,,,,,,,,,,,,,,,,,,,,,,,,,,,,,,,,,,,,,,0,25,25,47,,,,,,,,,,,,,,,,,,,,,,,,,,,,,,1056.9401331003755,1.0113311996683478,1057.9471273003146,1058.0304057998583,1058.8301271004602,1058.929945900105,1058.929945900105,1058.929945900105,left,1,1.00793069973588,,,,,,,,,,,,,,,,,,,,,,,,,,,,,,,,,,,,,001,001,2023-11-10_14h51.42.577,ETproject_Chi_2023.1.1,2023.1.1,60.0628736516048,
132,Week,星期二,星期一,,Hori,late,left,image/Chi_late.png,"[-0.4, 0]","[0.4, 0]",1,incongruent,,,,,,,,,,,,,,,,,,,,,,,,,,,,,,,,,,,,,,0,26,26,36,,,,,,,,,,,,,,,,,,,,,,,,,,,,,,1059.969694700092,0.9993700999766588,1060.9792999997735,1061.0626201005653,1061.8627311997116,1061.9624092001468,1061.9624092001468,1061.9624092001468,left,1,0.7667958997189999,,,,,,,,,,,,,,,,,,,,,,,,,,,,,,,,,,,,,001,001,2023-11-10_14h51.42.577,ETproject_Chi_2023.1.1,2023.1.1,60.0628736516048,
16,Month,五月,六月,,Hori,late,right,image/Chi_late.png,"[-0.4, 0]","[0.4, 0]",1,congruent,,,,,,,,,,,,,,,,,,,,,,,,,,,,,,,,,,,,,,0,27,27,32,,,,,,,,,,,,,,,,,,,,,,,,,,,,,,1062.7504240004346,1.0149111999198794,1063.7616384997964,1063.8451831005514,1064.6447526998818,1064.744799000211,1064.744799000211,1064.744799000211,right,1,1.1290818993002176,,,,,,,,,,,,,,,,,,,,,,,,,,,,,,,,,,,,,001,001,2023-11-10_14h51.42.577,ETproject_Chi_2023.1.1,2023.1.1,60.0628736516048,
18,Month,二月,六月,,Vert,early,up,image/Chi_early.png,"[0, 0.4]","[0, -0.4]",4,congruent,,,,,,,,,,,,,,,,,,,,,,,,,,,,,,,,,,,,,,0,28,28,25,,,,,,,,,,,,,,,,,,,,,,,,,,,,,,1065.9013042999431,1.0147890001535416,1066.9106475003064,1066.9940461004153,1067.7937200004235,1067.893782099709,1067.893782099709,1067.893782099709,up,1,1.3962308997288346,,,,,,,,,,,,,,,,,,,,,,,,,,,,,,,,,,,,,001,001,2023-11-10_14h51.42.577,ETproject_Chi_2023.1.1,2023.1.1,60.0628736516048,
139,Week,星期三 ,星期一,,Vert,early,down,image/Chi_early.png,"[0, 0.4]","[0, -0.4]",2,incongruent,,,,,,,,,,,,,,,,,,,,,,,,,,,,,,,,,,,,,,0,29,29,13,,,,,,,,,,,,,,,,,,,,,,,,,,,,,,1069.3145598005503,1.0154380993917584,1070.3261887002736,1070.4096015002578,1071.2094131996855,1071.3092042999342,1071.3092042999342,1071.3092042999342,down,1,0.76504319999367,,,,,,,,,,,,,,,,,,,,,,,,,,,,,,,,,,,,,001,001,2023-11-10_14h51.42.577,ETproject_Chi_2023.1.1,2023.1.1,60.0628736516048,
142,Week,星期六,星期四,,Vert,early,down,image/Chi_early.png,"[0, 0.4]","[0, -0.4]",2,incongruent,,,,,,,,,,,,,,,,,,,,,,,,,,,,,,,,,,,,,,0,30,30,15,,,,,,,,,,,,,,,,,,,,,,,,,,,,,,1072.0989803001285,1.0153673999011517,1073.1084912000224,1073.1920587001368,1073.991716899909,1074.0916280997917,1074.0916280997917,1074.0916280997917,down,1,0.7010132996365428,,,,,,,,,,,,,,,,,,,,,,,,,,,,,,,,,,,,,001,001,2023-11-10_14h51.42.577,ETproject_Chi_2023.1.1,2023.1.1,60.0628736516048,
3,Month,三月,四月,,Hori,early,left,image/Chi_early.png,"[-0.4, 0]","[0.4, 0]",1,congruent,,,,,,,,,,,,,,,,,,,,,,,,,,,,,,,,,,,,,,0,31,31,19,,,,,,,,,,,,,,,,,,,,,,,,,,,,,,1074.8346659000963,1.0113559002056718,1075.8410641001537,1075.9246012000367,1076.7242029998451,1076.824104600586,1076.824104600586,1076.824104600586,left,1,1.0815187003463507,,,,,,,,,,,,,,,,,,,,,,,,,,,,,,,,,,,,,001,001,2023-11-10_14h51.42.577,ETproject_Chi_2023.1.1,2023.1.1,60.0628736516048,
3,Month,三月,七月,,Hori,early,left,image/Chi_early.png,"[-0.4, 0]","[0.4, 0]",4,congruent,,,,,,,,,,,,,,,,,,,,,,,,,,,,,,,,,,,,,,0,32,32,49,,,,,,,,,,,,,,,,,,,,,,,,,,,,,,1077.9317465005443,1.0107430005446076,1078.9400724004954,1079.0233711004257,1079.823233500123,1079.9231112999842,1079.9231112999842,1079.9231112999842,left,1,0.8309651995077729,,,,,,,,,,,,,,,,,,,,,,,,,,,,,,,,,,,,,001,001,2023-11-10_14h51.42.577,ETproject_Chi_2023.1.1,2023.1.1,60.0628736516048,
49,Month,六月,五月,,Hori,early,right,image/Chi_early.png,"[-0.4, 0]","[0.4, 0]",1,incongruent,,,,,,,,,,,,,,,,,,,,,,,,,,,,,,,,,,,,,,0,33,33,20,,,,,,,,,,,,,,,,,,,,,,,,,,,,,,1080.781916799955,1.0110533004626632,1081.7893098006025,1081.8723454000428,1082.6720332000405,1082.7725440002978,1082.7725440002978,1082.7725440002978,right,1,0.9733129004016519,,,,,,,,,,,,,,,,,,,,,,,,,,,,,,,,,,,,,001,001,2023-11-10_14h51.42.577,ETproject_Chi_2023.1.1,2023.1.1,60.0628736516048,
106,Week,星期三 ,星期四,,Hori,late,right,image/Chi_late.png,"[-0.4, 0]","[0.4, 0]",1,congruent,,,,,,,,,,,,,,,,,,,,,,,,,,,,,,,,,,,,,,0,34,34,28,,,,,,,,,,,,,,,,,,,,,,,,,,,,,,1083.7890170002356,1.010053999722004,1084.7883342998102,1084.871386299841,1085.6711534000933,1085.771320800297,1085.771320800297,1085.771320800297,right,1,1.1343882996588945,,,,,,,,,,,,,,,,,,,,,,,,,,,,,,,,,,,,,001,001,2023-11-10_14h51.42.577,ETproject_Chi_2023.1.1,2023.1.1,60.0628736516048,
3,Month,三月,六月,,Hori,early,left,image/Chi_early.png,"[-0.4, 0]","[0.4, 0]",3,congruent,,,,,,,,,,,,,,,,,,,,,,,,,,,,,,,,,,,,,,0,35,35,0,,,,,,,,,,,,,,,,,,,,,,,,,,,,,,1086.9460391001776,0.9991549998521805,1087.9538924004883,1088.0373402005062,1088.8370051998645,1088.936945900321,1088.936945900321,1088.936945900321,left,1,0.8647359991446137,,,,,,,,,,,,,,,,,,,,,,,,,,,,,,,,,,,,,001,001,2023-11-10_14h51.42.577,ETproject_Chi_2023.1.1,2023.1.1,60.0628736516048,
15,Month,六月,九月 ,,Hori,late,right,image/Chi_late.png,"[-0.4, 0]","[0.4, 0]",3,congruent,,,,,,,,,,,,,,,,,,,,,,,,,,,,,,,,,,,,,,0,36,36,42,,,,,,,,,,,,,,,,,,,,,,,,,,,,,,1090.8332064002752,1.0131374998018146,1091.83579570055,1091.9192112004384,1092.7190918000415,1092.8188759004697,1092.8188759004697,1092.8188759004697,right,1,2.166086900047958,,,,,,,,,,,,,,,,,,,,,,,,,,,,,,,,,,,,,001,001,2023-11-10_14h51.42.577,ETproject_Chi_2023.1.1,2023.1.1,60.0628736516048,
