No,Category,earlier_stim,later_stim,conguency,orientation,instruction,corr_resp,Instruction_stim,early_position,late_position,distance,congruency,Image,Qustion,Response,CorrAns,Path,prac_block.thisRepN,prac_block.thisTrialN,prac_block.thisN,prac_block.thisIndex,trials.thisRepN,trials.thisTrialN,trials.thisN,trials.thisIndex,block1.thisRepN,block1.thisTrialN,block1.thisN,block1.thisIndex,break1.thisRepN,break1.thisTrialN,break1.thisN,break1.thisIndex,block2.thisRepN,block2.thisTrialN,block2.thisN,block2.thisIndex,break2.thisRepN,break2.thisTrialN,break2.thisN,break2.thisIndex,block3.thisRepN,block3.thisTrialN,block3.thisN,block3.thisIndex,break3.thisRepN,break3.thisTrialN,break3.thisN,break3.thisIndex,block4.thisRepN,block4.thisTrialN,block4.thisN,block4.thisIndex,intro_1.started,intro_1.stopped,intro_2.started,intro2_resp.started,intro2_resp.keys,intro2_resp.rt,Intro_3.started,intro3_resp.started,intro3_resp.keys,intro3_resp.rt,pracintro.started,pracintro_resp.started,pracintro_resp.keys,pracintro_resp.rt,image.started,early.started,RESP.started,late.started,pracfeedback.started,pracfeedback.stopped,image.stopped,text_4.started,text_5.started,text_4.stopped,baselinerecord.started,intro_5.started,intro5_resp.started,intro5_resp.keys,intro5_resp.rt,main_image_2.started,etRecord.started,main_image_2.stopped,fix.started,fix.stopped,main_early.started,ct_resp.started,main_late.started,ct_resp.keys,ct_resp.corr,ct_resp.rt,intro.started,intro2_resp_2.started,intro2_resp_2.keys,intro2_resp_2.rt,fengjing.started,text.started,fengjing.stopped,text.stopped,key_resp.started,text_2.started,text_3.started,key_resp.keys,key_resp.corr,key_resp.rt,intro_6.started,intro5_resp_2.started,intro5_resp_2.keys,intro5_resp_2.rt,intro_3.started,intro2_resp_3.started,intro2_resp_3.keys,intro2_resp_3.rt,intro_7.started,intro2_resp_5.started,intro2_resp_5.keys,intro2_resp_5.rt,intro_4.started,intro2_resp_4.started,intro2_resp_4.keys,intro2_resp_4.rt,intro_8.started,intro2_resp_6.started,intro2_resp_6.keys,intro2_resp_6.rt,theend.started,participant,session,date,expName,psychopyVersion,frameRate,
,,,,,,,,,,,,,,,,,,,,,,,,,,,,,,,,,,,,,,,,,,,,,,,,,,,,,,93.90046259947121,95.90922199934721,95.90922199934721,95.90922199934721,space,11.105421900749207,,,,,,,,,,,,,,,,,,,,,,,,,,,,,,,,,,,,,,,,,,,,,,,,,,,,,,,,,,,,,,,,,,,,,,003,001,2023-11-15_16h19.43.707,ETproject_Chi_2023.1.1,2023.1.1,59.97123793831685,
,,,,,,,,,,,,,,,,,,,,,,,,,,,,,,,,,,,,,,,,,,,,,,,,,,,,,,,,,,,,107.03918759990484,107.03918759990484,space,17.61587230116129,,,,,,,,,,,,,,,,,,,,,,,,,,,,,,,,,,,,,,,,,,,,,,,,,,,,,,,,,,,,,,,,,,003,001,2023-11-15_16h19.43.707,ETproject_Chi_2023.1.1,2023.1.1,59.97123793831685,
1,practice,星期三 ,星期四,congruent,Hori,early,left,image/Chi_early.png,"[-0.4, 0]","[0.4, 0]",,,,,,,,0,0,0,0,0,0,0,0,,,,,,,,,,,,,,,,,,,,,,,,,,,,,,,,,,,,,,,124.72649099957198,124.72649099957198,space,3.7447425005957484,128.5548287993297,129.514640099369,129.514640099369,129.514640099369,130.68795609939843,,,,,,,,,,,,,,,,,,,,,,,,,,,,,,,,,,,,,,,,,,,,,,,,,,,,,,,,,003,001,2023-11-15_16h19.43.707,ETproject_Chi_2023.1.1,2023.1.1,59.97123793831685,
3,practice,星期一,星期二,congruent,Vert,early,up,image/Chi_early.png,"[0, 0.4]","[0, -0.4]",,,,,,,,0,0,0,0,0,1,1,2,,,,,,,,,,,,,,,,,,,,,,,,,,,,,,,,,,,,,,,,,,,131.6991828996688,132.6969710998237,132.6969710998237,132.6969710998237,133.73019989952445,134.73665879946202,,,,,,,,,,,,,,,,,,,,,,,,,,,,,,,,,,,,,,,,,,,,,,,,,,,,,,,,003,001,2023-11-15_16h19.43.707,ETproject_Chi_2023.1.1,2023.1.1,59.97123793831685,
8,practice,星期六,星期五,incongruent,Vert,late,up,image/Chi_late.png,"[0, 0.4]","[0, -0.4]",,,,,,,,0,0,0,0,0,2,2,7,,,,,,,,,,,,,,,,,,,,,,,,,,,,,,,,,,,,,,,,,,,134.73665879946202,135.7459741998464,135.7459741998464,135.7459741998464,136.9292345000431,137.9352037999779,,,,,,,,,,,,,,,,,,,,,,,,,,,,,,,,,,,,,,,,,,,,,,,,,,,,,,,,003,001,2023-11-15_16h19.43.707,ETproject_Chi_2023.1.1,2023.1.1,59.97123793831685,
7,practice,星期三 ,星期二,incongruent,Vert,early,down,image/Chi_early.png,"[0, 0.4]","[0, -0.4]",,,,,,,,0,0,0,0,0,3,3,6,,,,,,,,,,,,,,,,,,,,,,,,,,,,,,,,,,,,,,,,,,,137.9352037999779,138.94495879951864,138.94495879951864,138.94495879951864,140.5280093997717,141.52854999992996,,,,,,,,,,,,,,,,,,,,,,,,,,,,,,,,,,,,,,,,,,,,,,,,,,,,,,,,003,001,2023-11-15_16h19.43.707,ETproject_Chi_2023.1.1,2023.1.1,59.97123793831685,
5,practice,星期二,星期一,incongruent,Hori,early,right,image/Chi_early.png,"[-0.4, 0]","[0.4, 0]",,,,,,,,0,0,0,0,0,4,4,4,,,,,,,,,,,,,,,,,,,,,,,,,,,,,,,,,,,,,,,,,,,141.52854999992996,142.5270420992747,142.5270420992747,142.5270420992747,143.56023999955505,144.5637264996767,142.5270420992747,,,,,,,,,,,,,,,,,,,,,,,,,,,,,,,,,,,,,,,,,,,,,,,,,,,,,,,003,001,2023-11-15_16h19.43.707,ETproject_Chi_2023.1.1,2023.1.1,59.97123793831685,
6,practice,星期四,星期三 ,incongruent,Hori,late,left,image/Chi_late.png,"[-0.4, 0]","[0.4, 0]",,,,,,,,0,0,0,0,0,5,5,5,,,,,,,,,,,,,,,,,,,,,,,,,,,,,,,,,,,,,,,,,,,144.5637264996767,145.57609819993377,145.57609819993377,145.57609819993377,146.7425347995013,147.7432752996683,,,,,,,,,,,,,,,,,,,,,,,,,,,,,,,,,,,,,,,,,,,,,,,,,,,,,,,,003,001,2023-11-15_16h19.43.707,ETproject_Chi_2023.1.1,2023.1.1,59.97123793831685,
4,practice,星期日,星期一,congruent,Vert,late,down,image/Chi_late.png,"[0, 0.4]","[0, -0.4]",,,,,,,,0,0,0,0,0,6,6,3,,,,,,,,,,,,,,,,,,,,,,,,,,,,,,,,,,,,,,,,,,,147.7432752996683,148.74166689999402,148.74166689999402,148.74166689999402,149.8116809995845,,148.74166689999402,,,,,,,,,,,,,,,,,,,,,,,,,,,,,,,,,,,,,,,,,,,,,,,,,,,,,,,003,001,2023-11-15_16h19.43.707,ETproject_Chi_2023.1.1,2023.1.1,59.97123793831685,
2,practice,星期五,星期六,congruent,Hori,late,right,image/Chi_late.png,"[-0.4, 0]","[0.4, 0]",,,,,,,,0,0,0,0,0,7,7,1,,,,,,,,,,,,,,,,,,,,,,,,,,,,,,,,,,,,,,,,,,,150.82552989944816,151.824094299227,151.824094299227,151.824094299227,152.77392749954015,153.77370309922844,,,,,,,,,,,,,,,,,,,,,,,,,,,,,,,,,,,,,,,,,,,,,,,,,,,,,,,,003,001,2023-11-15_16h19.43.707,ETproject_Chi_2023.1.1,2023.1.1,59.97123793831685,
,,,,,,,,,,,,,,,,,,0,0,0,0,,,,,,,,,,,,,,,,,,,,,,,,,,,,,,,,,,,,,,,,,,,,,,,,,,,,,,,,,,,,,,,,,,,,,,,,,,,,,,,,,,,,,,,,,,,,,,,,,,,,,,,,,,,,003,001,2023-11-15_16h19.43.707,ETproject_Chi_2023.1.1,2023.1.1,59.97123793831685,
,,,,,,,,,,,,,,,,,,,,,,,,,,,,,,,,,,,,,,,,,,,,,,,,,,,,,,,,,,,,,,,,,,,,,,,,,,,153.77370309922844,156.7725879997015,156.78908739984035,3.014411199837923,160.7876412998885,160.7876412998885,space,2.45928250066936,,,,,,,,,,,,,,,,,,,,,,,,,,,,,,,,,,,,,,,,,,,,,,,003,001,2023-11-15_16h19.43.707,ETproject_Chi_2023.1.1,2023.1.1,59.97123793831685,
101,Week,星期五,星期六,,Hori,early,left,image/Chi_early.png,"[-0.4, 0]","[0.4, 0]",1,congruent,,,,,,,,,,,,,,0,0,0,42,,,,,,,,,,,,,,,,,,,,,,,,,,,,,,,,,,,,,,,,,,,,,,,,,,,,,,163.28887349925935,0.9992466997355223,164.30316759925336,164.36983509920537,165.1695841997862,165.26962849963456,165.26962849963456,165.26962849963456,left,1,0.8963407007977366,,,,,,,,,,,,,,,,,,,,,,,,,,,,,,,,,,,,003,001,2023-11-15_16h19.43.707,ETproject_Chi_2023.1.1,2023.1.1,59.97123793831685,
58,Month,六月,二月,,Vert,late,up,image/Chi_late.png,"[0, 0.4]","[0, -0.4]",4,incongruent,,,,,,,,,,,,,,0,1,1,18,,,,,,,,,,,,,,,,,,,,,,,,,,,,,,,,,,,,,,,,,,,,,,,,,,,,,,166.20310429949313,1.0122488997876644,167.20211789943278,167.28578159958124,168.0855208998546,168.18513969983906,168.18513969983906,168.18513969983906,up,1,1.789193800650537,,,,,,,,,,,,,,,,,,,,,,,,,,,,,,,,,,,,003,001,2023-11-15_16h19.43.707,ETproject_Chi_2023.1.1,2023.1.1,59.97123793831685,
49,Month,七月,四月,,Hori,late,left,image/Chi_late.png,"[-0.4, 0]","[0.4, 0]",3,incongruent,,,,,,,,,,,,,,0,2,2,38,,,,,,,,,,,,,,,,,,,,,,,,,,,,,,,,,,,,,,,,,,,,,,,,,,,,,,170.0113001000136,1.011523200199008,171.01767539978027,171.10097449924797,171.90066709928215,172.000705499202,172.000705499202,172.000705499202,left,1,1.10075160022825,,,,,,,,,,,,,,,,,,,,,,,,,,,,,,,,,,,,003,001,2023-11-15_16h19.43.707,ETproject_Chi_2023.1.1,2023.1.1,59.97123793831685,
136,Week,星期日,星期五,,Hori,late,left,image/Chi_late.png,"[-0.4, 0]","[0.4, 0]",2,incongruent,,,,,,,,,,,,,,0,3,3,17,,,,,,,,,,,,,,,,,,,,,,,,,,,,,,,,,,,,,,,,,,,,,,,,,,,,,,173.1380592994392,0.9990761000663042,174.1497863996774,174.23330009914935,175.03342620003968,175.13304159976542,175.13304159976542,175.13304159976542,right,0,2.5617672000080347,,,,,,,,,,,,,,,,,,,,,,,,,,,,,,,,,,,,003,001,2023-11-15_16h19.43.707,ETproject_Chi_2023.1.1,2023.1.1,59.97123793831685,
132,Week,星期四,星期一,,Hori,late,left,image/Chi_late.png,"[-0.4, 0]","[0.4, 0]",3,incongruent,,,,,,,,,,,,,,0,4,4,19,,,,,,,,,,,,,,,,,,,,,,,,,,,,,,,,,,,,,,,,,,,,,,,,,,,,,,177.72070749942213,1.015021899715066,178.73175899963826,178.81512899976224,179.61501309927553,179.71485309954733,179.71485309954733,179.71485309954733,left,1,2.3558072010055184,,,,,,,,,,,,,,,,,,,,,,,,,,,,,,,,,,,,003,001,2023-11-15_16h19.43.707,ETproject_Chi_2023.1.1,2023.1.1,59.97123793831685,
45,Month,九月 ,五月,,Hori,late,left,image/Chi_late.png,"[-0.4, 0]","[0.4, 0]",4,incongruent,,,,,,,,,,,,,,0,5,5,39,,,,,,,,,,,,,,,,,,,,,,,,,,,,,,,,,,,,,,,,,,,,,,,,,,,,,,182.10546689946204,1.0143226999789476,183.11367379967123,183.19678949937224,183.99695609975606,184.09675609972328,184.09675609972328,184.09675609972328,left,1,0.910177200101316,,,,,,,,,,,,,,,,,,,,,,,,,,,,,,,,,,,,003,001,2023-11-15_16h19.43.707,ETproject_Chi_2023.1.1,2023.1.1,59.97123793831685,
23,Month,七月,十一月 ,,Vert,early,up,image/Chi_early.png,"[0, 0.4]","[0, -0.4]",4,congruent,,,,,,,,,,,,,,0,6,6,48,,,,,,,,,,,,,,,,,,,,,,,,,,,,,,,,,,,,,,,,,,,,,,,,,,,,,,185.04368659947067,1.0111442999914289,186.0460922997445,186.12931900005788,186.92907289974391,187.02903349976987,187.02903349976987,187.02903349976987,up,1,1.1938809007406235,,,,,,,,,,,,,,,,,,,,,,,,,,,,,,,,,,,,003,001,2023-11-15_16h19.43.707,ETproject_Chi_2023.1.1,2023.1.1,59.97123793831685,
98,Week,星期二,星期三 ,,Hori,early,left,image/Chi_early.png,"[-0.4, 0]","[0.4, 0]",1,congruent,,,,,,,,,,,,,,0,7,7,49,,,,,,,,,,,,,,,,,,,,,,,,,,,,,,,,,,,,,,,,,,,,,,,,,,,,,,188.2572137992829,1.0108492001891136,189.261488199234,189.34507859963924,190.14477209933102,190.2450119992718,190.2450119992718,190.2450119992718,left,1,1.5294045014306903,,,,,,,,,,,,,,,,,,,,,,,,,,,,,,,,,,,,003,001,2023-11-15_16h19.43.707,ETproject_Chi_2023.1.1,2023.1.1,59.97123793831685,
24,Month,六月,九月 ,,Vert,early,up,image/Chi_early.png,"[0, 0.4]","[0, -0.4]",3,congruent,,,,,,,,,,,,,,0,8,8,33,,,,,,,,,,,,,,,,,,,,,,,,,,,,,,,,,,,,,,,,,,,,,,,,,,,,,,191.80297449976206,1.010831699706614,192.81054579932243,192.89392309915274,193.69351269956678,193.79336609970778,193.79336609970778,193.79336609970778,up,1,1.101770400069654,,,,,,,,,,,,,,,,,,,,,,,,,,,,,,,,,,,,003,001,2023-11-15_16h19.43.707,ETproject_Chi_2023.1.1,2023.1.1,59.97123793831685,
59,Month,七月,三月,,Vert,late,up,image/Chi_late.png,"[0, 0.4]","[0, -0.4]",4,incongruent,,,,,,,,,,,,,,0,9,9,47,,,,,,,,,,,,,,,,,,,,,,,,,,,,,,,,,,,,,,,,,,,,,,,,,,,,,,194.93942980002612,1.013760599307716,195.9426923999563,196.02624799963087,196.8258447991684,196.92587559949607,196.92587559949607,196.92587559949607,up,1,1.1996687008067966,,,,,,,,,,,,,,,,,,,,,,,,,,,,,,,,,,,,003,001,2023-11-15_16h19.43.707,ETproject_Chi_2023.1.1,2023.1.1,59.97123793831685,
112,Week,星期二,星期三 ,,Vert,early,up,image/Chi_early.png,"[0, 0.4]","[0, -0.4]",1,congruent,,,,,,,,,,,,,,0,10,10,31,,,,,,,,,,,,,,,,,,,,,,,,,,,,,,,,,,,,,,,,,,,,,,,,,,,,,,198.15264640003443,1.0134276999160647,199.15837399940938,199.2416488993913,200.04144589975476,200.1413165992126,200.1413165992126,200.1413165992126,up,1,1.7221188005059958,,,,,,,,,,,,,,,,,,,,,,,,,,,,,,,,,,,,003,001,2023-11-15_16h19.43.707,ETproject_Chi_2023.1.1,2023.1.1,59.97123793831685,
125,Week,星期三 ,星期一,,Hori,early,right,image/Chi_early.png,"[-0.4, 0]","[0.4, 0]",2,incongruent,,,,,,,,,,,,,,0,11,11,5,,,,,,,,,,,,,,,,,,,,,,,,,,,,,,,,,,,,,,,,,,,,,,,,,,,,,,201.89469959959388,0.9995341002941132,202.90731409937143,202.99062079936266,203.79019729979336,203.89011389948428,203.89011389948428,203.89011389948428,up,0,1.740701500326395,,,,,,,,,,,,,,,,,,,,,,,,,,,,,,,,,,,,003,001,2023-11-15_16h19.43.707,ETproject_Chi_2023.1.1,2023.1.1,59.97123793831685,
141,Week,星期五,星期三 ,,Vert,early,down,image/Chi_early.png,"[0, 0.4]","[0, -0.4]",2,incongruent,,,,,,,,,,,,,,0,12,12,15,,,,,,,,,,,,,,,,,,,,,,,,,,,,,,,,,,,,,,,,,,,,,,,,,,,,,,206.66178689990193,1.0147895002737641,207.6724182991311,207.75569320004433,208.55528779979795,208.65528319962323,208.65528319962323,208.65528319962323,down,1,1.4547267006710172,,,,,,,,,,,,,,,,,,,,,,,,,,,,,,,,,,,,003,001,2023-11-15_16h19.43.707,ETproject_Chi_2023.1.1,2023.1.1,59.97123793831685,
150,Week,星期六,星期五,,Vert,late,up,image/Chi_late.png,"[0, 0.4]","[0, -0.4]",1,incongruent,,,,,,,,,,,,,,0,13,13,23,,,,,,,,,,,,,,,,,,,,,,,,,,,,,,,,,,,,,,,,,,,,,,,,,,,,,,210.15246059931815,1.0113987000659108,211.15438229963183,211.23786749970168,212.03757099993527,212.13743679970503,212.13743679970503,212.13743679970503,up,1,1.1330953007563949,,,,,,,,,,,,,,,,,,,,,,,,,,,,,,,,,,,,003,001,2023-11-15_16h19.43.707,ETproject_Chi_2023.1.1,2023.1.1,59.97123793831685,
107,Week,星期四,星期六,,Hori,late,right,image/Chi_late.png,"[-0.4, 0]","[0.4, 0]",2,congruent,,,,,,,,,,,,,,0,14,14,16,,,,,,,,,,,,,,,,,,,,,,,,,,,,,,,,,,,,,,,,,,,,,,,,,,,,,,213.29515039920807,1.011573899537325,214.30327069945633,214.38674199953675,215.18634399957955,215.28653919976205,215.28653919976205,215.28653919976205,right,1,1.4798640003427863,,,,,,,,,,,,,,,,,,,,,,,,,,,,,,,,,,,,003,001,2023-11-15_16h19.43.707,ETproject_Chi_2023.1.1,2023.1.1,59.97123793831685,
20,Month,四月,八月,,Vert,early,up,image/Chi_early.png,"[0, 0.4]","[0, -0.4]",4,congruent,,,,,,,,,,,,,,0,15,15,4,,,,,,,,,,,,,,,,,,,,,,,,,,,,,,,,,,,,,,,,,,,,,,,,,,,,,,217.79938379954547,1.0148612996563315,218.80169190000743,218.88501069974154,219.68493789993227,219.7849426995963,219.7849426995963,219.7849426995963,up,1,1.566321300342679,,,,,,,,,,,,,,,,,,,,,,,,,,,,,,,,,,,,003,001,2023-11-15_16h19.43.707,ETproject_Chi_2023.1.1,2023.1.1,59.97123793831685,
99,Week,星期三 ,星期六,,Hori,early,left,image/Chi_early.png,"[-0.4, 0]","[0.4, 0]",3,congruent,,,,,,,,,,,,,,0,16,16,6,,,,,,,,,,,,,,,,,,,,,,,,,,,,,,,,,,,,,,,,,,,,,,,,,,,,,,221.37696559913456,1.0108788004145026,222.38404469937086,222.46742179989815,223.26711529958993,223.36706649977714,223.36706649977714,223.36706649977714,left,1,1.726506601087749,,,,,,,,,,,,,,,,,,,,,,,,,,,,,,,,,,,,003,001,2023-11-15_16h19.43.707,ETproject_Chi_2023.1.1,2023.1.1,59.97123793831685,
29,Month,七月,八月,,Vert,early,up,image/Chi_early.png,"[0, 0.4]","[0, -0.4]",1,congruent,,,,,,,,,,,,,,0,17,17,2,,,,,,,,,,,,,,,,,,,,,,,,,,,,,,,,,,,,,,,,,,,,,,,,,,,,,,225.12065909989178,1.0152992000803351,226.13276920001954,226.2161424998194,227.01584579981863,227.1159481992945,227.1159481992945,227.1159481992945,up,1,1.2416340010240674,,,,,,,,,,,,,,,,,,,,,,,,,,,,,,,,,,,,003,001,2023-11-15_16h19.43.707,ETproject_Chi_2023.1.1,2023.1.1,59.97123793831685,
150,Week,星期日,星期五,,Vert,late,up,image/Chi_late.png,"[0, 0.4]","[0, -0.4]",2,incongruent,,,,,,,,,,,,,,0,18,18,46,,,,,,,,,,,,,,,,,,,,,,,,,,,,,,,,,,,,,,,,,,,,,,,,,,,,,,228.39439229946584,1.0148230995982885,229.39833439979702,229.48167759925127,230.2815370997414,230.3812629999593,230.3812629999593,230.3812629999593,up,1,2.7779465010389686,,,,,,,,,,,,,,,,,,,,,,,,,,,,,,,,,,,,003,001,2023-11-15_16h19.43.707,ETproject_Chi_2023.1.1,2023.1.1,59.97123793831685,
116,Week,星期六,星期日,,Vert,early,up,image/Chi_early.png,"[0, 0.4]","[0, -0.4]",1,congruent,,,,,,,,,,,,,,0,19,19,10,,,,,,,,,,,,,,,,,,,,,,,,,,,,,,,,,,,,,,,,,,,,,,,,,,,,,,233.1889320993796,1.0153921004384756,234.19688429962844,234.2801385000348,235.079882199876,235.1798367993906,235.1798367993906,235.1798367993906,up,1,1.2995042009279132,,,,,,,,,,,,,,,,,,,,,,,,,,,,,,,,,,,,003,001,2023-11-15_16h19.43.707,ETproject_Chi_2023.1.1,2023.1.1,59.97123793831685,
106,Week,星期三 ,星期六,,Hori,late,right,image/Chi_late.png,"[-0.4, 0]","[0.4, 0]",3,congruent,,,,,,,,,,,,,,0,20,20,3,,,,,,,,,,,,,,,,,,,,,,,,,,,,,,,,,,,,,,,,,,,,,,,,,,,,,,236.50856359954923,1.0150995999574661,237.51232699956745,237.59584550000727,238.39545049984008,238.4955873992294,238.4955873992294,238.4955873992294,right,1,1.038458300754428,,,,,,,,,,,,,,,,,,,,,,,,,,,,,,,,,,,,003,001,2023-11-15_16h19.43.707,ETproject_Chi_2023.1.1,2023.1.1,59.97123793831685,
126,Week,星期三 ,星期二,,Hori,early,right,image/Chi_early.png,"[-0.4, 0]","[0.4, 0]",1,incongruent,,,,,,,,,,,,,,0,21,21,25,,,,,,,,,,,,,,,,,,,,,,,,,,,,,,,,,,,,,,,,,,,,,,,,,,,,,,239.5722839999944,1.0154839996248484,240.578086999245,240.66131779924035,241.46111489925534,241.5611143000424,241.5611143000424,241.5611143000424,right,1,1.6054346011951566,,,,,,,,,,,,,,,,,,,,,,,,,,,,,,,,,,,,003,001,2023-11-15_16h19.43.707,ETproject_Chi_2023.1.1,2023.1.1,59.97123793831685,
142,Week,星期五,星期四,,Vert,early,down,image/Chi_early.png,"[0, 0.4]","[0, -0.4]",1,incongruent,,,,,,,,,,,,,,0,22,22,0,,,,,,,,,,,,,,,,,,,,,,,,,,,,,,,,,,,,,,,,,,,,,,,,,,,,,,243.20402359962463,1.0117493001744151,244.2102994993329,244.29345449991524,245.09324639942497,245.19321959931403,245.19321959931403,245.19321959931403,down,1,1.237690401263535,,,,,,,,,,,,,,,,,,,,,,,,,,,,,,,,,,,,003,001,2023-11-15_16h19.43.707,ETproject_Chi_2023.1.1,2023.1.1,59.97123793831685,
12,Week,星期日,星期四,,Vert,late,up,image/Chi_late.png,"[0, 0.4]","[0, -0.4]",3,incongruent,,,,,,,,,,,,,,0,23,23,9,,,,,,,,,,,,,,,,,,,,,,,,,,,,,,,,,,,,,,,,,,,,,,,,,,,,,,246.46975529938936,1.0118505004793406,247.47564819920808,247.5590500999242,248.3588059991598,248.45882429927588,248.45882429927588,248.45882429927588,up,1,1.7640502005815506,,,,,,,,,,,,,,,,,,,,,,,,,,,,,,,,,,,,003,001,2023-11-15_16h19.43.707,ETproject_Chi_2023.1.1,2023.1.1,59.97123793831685,
97,Week,星期一,星期四,,Hori,early,left,image/Chi_early.png,"[-0.4, 0]","[0.4, 0]",3,congruent,,,,,,,,,,,,,,0,24,24,20,,,,,,,,,,,,,,,,,,,,,,,,,,,,,,,,,,,,,,,,,,,,,,,,,,,,,,250.25149739999324,1.012037799693644,251.25774959940463,251.34128739964217,252.1409497000277,252.24094219971448,252.24094219971448,252.24094219971448,left,1,1.5743983006104827,,,,,,,,,,,,,,,,,,,,,,,,,,,,,,,,,,,,003,001,2023-11-15_16h19.43.707,ETproject_Chi_2023.1.1,2023.1.1,59.97123793831685,
16,Month,六月,八月,,Hori,late,right,image/Chi_late.png,"[-0.4, 0]","[0.4, 0]",2,congruent,,,,,,,,,,,,,,0,25,25,30,,,,,,,,,,,,,,,,,,,,,,,,,,,,,,,,,,,,,,,,,,,,,,,,,,,,,,253.85318950004876,0.9992622006684542,254.85673909913749,254.9399733999744,255.73969059996307,255.83969999942929,255.83969999942929,255.83969999942929,left,0,1.3261181004345417,,,,,,,,,,,,,,,,,,,,,,,,,,,,,,,,,,,,003,001,2023-11-15_16h19.43.707,ETproject_Chi_2023.1.1,2023.1.1,59.97123793831685,
101,Week,星期五,星期日,,Hori,early,left,image/Chi_early.png,"[-0.4, 0]","[0.4, 0]",2,congruent,,,,,,,,,,,,,,0,26,26,40,,,,,,,,,,,,,,,,,,,,,,,,,,,,,,,,,,,,,,,,,,,,,,,,,,,,,,257.2018801998347,1.0099499998614192,258.2057024994865,258.2888773996383,259.0886996993795,259.18858299963176,259.18858299963176,259.18858299963176,left,1,1.7062578005716205,,,,,,,,,,,,,,,,,,,,,,,,,,,,,,,,,,,,003,001,2023-11-15_16h19.43.707,ETproject_Chi_2023.1.1,2023.1.1,59.97123793831685,
38,Month,八月,十月 ,,Vert,late,down,image/Chi_late.png,"[0, 0.4]","[0, -0.4]",2,congruent,,,,,,,,,,,,,,0,27,27,37,,,,,,,,,,,,,,,,,,,,,,,,,,,,,,,,,,,,,,,,,,,,,,,,,,,,,,260.93625659961253,1.0097425002604723,261.9376006992534,262.02093390002847,262.8207353996113,262.9206689996645,262.9206689996645,262.9206689996645,up,0,1.0939182005822659,,,,,,,,,,,,,,,,,,,,,,,,,,,,,,,,,,,,003,001,2023-11-15_16h19.43.707,ETproject_Chi_2023.1.1,2023.1.1,59.97123793831685,
118,Week,星期一,星期四,,Vert,late,down,image/Chi_late.png,"[0, 0.4]","[0, -0.4]",3,congruent,,,,,,,,,,,,,,0,28,28,45,,,,,,,,,,,,,,,,,,,,,,,,,,,,,,,,,,,,,,,,,,,,,,,,,,,,,,264.04595709964633,1.0117469998076558,265.0532167991623,265.1367667997256,265.9364211000502,266.03623129986227,266.03623129986227,266.03623129986227,up,0,1.4258982008323073,,,,,,,,,,,,,,,,,,,,,,,,,,,,,,,,,,,,003,001,2023-11-15_16h19.43.707,ETproject_Chi_2023.1.1,2023.1.1,59.97123793831685,
75,Month,十月 ,九月 ,,Vert,early,down,image/Chi_early.png,"[0, 0.4]","[0, -0.4]",1,incongruent,,,,,,,,,,,,,,0,29,29,1,,,,,,,,,,,,,,,,,,,,,,,,,,,,,,,,,,,,,,,,,,,,,,,,,,,,,,267.5042400993407,1.010041399858892,268.518765299581,268.5854292996228,269.385323099792,269.4851118000224,269.4851118000224,269.4851118000224,down,1,2.3451670007780194,,,,,,,,,,,,,,,,,,,,,,,,,,,,,,,,,,,,003,001,2023-11-15_16h19.43.707,ETproject_Chi_2023.1.1,2023.1.1,59.97123793831685,
148,Week,星期六,星期三 ,,Vert,late,up,image/Chi_late.png,"[0, 0.4]","[0, -0.4]",3,incongruent,,,,,,,,,,,,,,0,30,30,26,,,,,,,,,,,,,,,,,,,,,,,,,,,,,,,,,,,,,,,,,,,,,,,,,,,,,,271.8630563998595,1.0122207999229431,272.86740669980645,272.950694299303,273.7504968997091,273.8504284992814,273.8504284992814,273.8504284992814,up,1,2.0677439011633396,,,,,,,,,,,,,,,,,,,,,,,,,,,,,,,,,,,,003,001,2023-11-15_16h19.43.707,ETproject_Chi_2023.1.1,2023.1.1,59.97123793831685,
46,Month,四月,一月,,Hori,late,left,image/Chi_late.png,"[-0.4, 0]","[0.4, 0]",3,incongruent,,,,,,,,,,,,,,0,31,31,14,,,,,,,,,,,,,,,,,,,,,,,,,,,,,,,,,,,,,,,,,,,,,,,,,,,,,,275.9547939999029,1.0148709993809462,276.965964499861,277.04935439955443,277.84917709976435,277.9490132993087,277.9490132993087,277.9490132993087,left,1,1.3444251008331776,,,,,,,,,,,,,,,,,,,,,,,,,,,,,,,,,,,,003,001,2023-11-15_16h19.43.707,ETproject_Chi_2023.1.1,2023.1.1,59.97123793831685,
77,Month,九月 ,七月,,Vert,late,up,image/Chi_late.png,"[0, 0.4]","[0, -0.4]",2,incongruent,,,,,,,,,,,,,,0,32,32,43,,,,,,,,,,,,,,,,,,,,,,,,,,,,,,,,,,,,,,,,,,,,,,,,,,,,,,279.3261034991592,1.0121082002297044,280.33145649917424,280.4149504993111,281.2146202996373,281.31456119939685,281.31456119939685,281.31456119939685,up,1,1.324595200829208,,,,,,,,,,,,,,,,,,,,,,,,,,,,,,,,,,,,003,001,2023-11-15_16h19.43.707,ETproject_Chi_2023.1.1,2023.1.1,59.97123793831685,
78,Month,十月 ,八月,,Vert,late,up,image/Chi_late.png,"[0, 0.4]","[0, -0.4]",2,incongruent,,,,,,,,,,,,,,0,33,33,44,,,,,,,,,,,,,,,,,,,,,,,,,,,,,,,,,,,,,,,,,,,,,,,,,,,,,,282.6733017992228,1.0112747000530362,283.6804732000455,283.7639371994883,284.56355830002576,284.66369919944555,284.66369919944555,284.66369919944555,up,1,1.3195693008601665,,,,,,,,,,,,,,,,,,,,,,,,,,,,,,,,,,,,003,001,2023-11-15_16h19.43.707,ETproject_Chi_2023.1.1,2023.1.1,59.97123793831685,
1,Month,一月,二月 ,,Hori,early,left,image/Chi_early.png,"[-0.4, 0]","[0.4, 0]",1,congruent,,,,,,,,,,,,,,0,34,34,28,,,,,,,,,,,,,,,,,,,,,,,,,,,,,,,,,,,,,,,,,,,,,,,,,,,,,,286.03092819917947,1.0103456992655993,287.02936319913715,287.11253519915044,287.9123693993315,288.01223289966583,288.01223289966583,288.01223289966583,left,1,0.9466844005510211,,,,,,,,,,,,,,,,,,,,,,,,,,,,,,,,,,,,003,001,2023-11-15_16h19.43.707,ETproject_Chi_2023.1.1,2023.1.1,59.97123793831685,
6,Month,六月,十月 ,,Hori,early,left,image/Chi_early.png,"[-0.4, 0]","[0.4, 0]",4,congruent,,,,,,,,,,,,,,0,35,35,29,,,,,,,,,,,,,,,,,,,,,,,,,,,,,,,,,,,,,,,,,,,,,,,,,,,,,,288.98412779998034,1.015231099911034,289.995010599494,290.0782803995535,290.8781646993011,290.97810469940305,290.97810469940305,290.97810469940305,left,1,0.8517686007544398,,,,,,,,,,,,,,,,,,,,,,,,,,,,,,,,,,,,003,001,2023-11-15_16h19.43.707,ETproject_Chi_2023.1.1,2023.1.1,59.97123793831685,
62,Month,十月 ,六月,,Vert,late,up,image/Chi_late.png,"[0, 0.4]","[0, -0.4]",4,incongruent,,,,,,,,,,,,,,0,36,36,27,,,,,,,,,,,,,,,,,,,,,,,,,,,,,,,,,,,,,,,,,,,,,,,,,,,,,,291.8702814998105,1.0156518993899226,292.87757269944996,292.96074809972197,293.76049089990556,293.86062509939075,293.86062509939075,293.86062509939075,up,1,1.0488669006153941,,,,,,,,,,,,,,,,,,,,,,,,,,,,,,,,,,,,003,001,2023-11-15_16h19.43.707,ETproject_Chi_2023.1.1,2023.1.1,59.97123793831685,
34,Month,六月,二月,,Hori,early,right,image/Chi_early.png,"[-0.4, 0]","[0.4, 0]",4,incongruent,,,,,,,,,,,,,,0,37,37,21,,,,,,,,,,,,,,,,,,,,,,,,,,,,,,,,,,,,,,,,,,,,,,,,,,,,,,294.93706779927015,1.0154374996200204,295.94309099949896,296.0262861996889,296.8261968996376,296.9261910999194,296.9261910999194,296.9261910999194,right,1,1.224894500337541,,,,,,,,,,,,,,,,,,,,,,,,,,,,,,,,,,,,003,001,2023-11-15_16h19.43.707,ETproject_Chi_2023.1.1,2023.1.1,59.97123793831685,
114,Week,星期四,星期日,,Vert,early,up,image/Chi_early.png,"[0, 0.4]","[0, -0.4]",3,congruent,,,,,,,,,,,,,,0,38,38,12,,,,,,,,,,,,,,,,,,,,,,,,,,,,,,,,,,,,,,,,,,,,,,,,,,,,,,298.1804458992556,1.0148940002545714,299.1919815996662,299.2753087999299,300.07502589933574,300.1752071995288,300.1752071995288,300.1752071995288,up,1,1.111021900549531,,,,,,,,,,,,,,,,,,,,,,,,,,,,,,,,,,,,003,001,2023-11-15_16h19.43.707,ETproject_Chi_2023.1.1,2023.1.1,59.97123793831685,
13,Month,四月,七月,,Hori,late,right,image/Chi_late.png,"[-0.4, 0]","[0.4, 0]",3,congruent,,,,,,,,,,,,,,0,39,39,41,,,,,,,,,,,,,,,,,,,,,,,,,,,,,,,,,,,,,,,,,,,,,,,,,,,,,,301.31692339945585,1.0141829997301102,302.32426369935274,302.4077375000343,303.2074642991647,303.3077121991664,303.3077121991664,303.3077121991664,right,1,1.0827260008081794,,,,,,,,,,,,,,,,,,,,,,,,,,,,,,,,,,,,003,001,2023-11-15_16h19.43.707,ETproject_Chi_2023.1.1,2023.1.1,59.97123793831685,
34,Month,七月,十月 ,,Vert,late,down,image/Chi_late.png,"[0, 0.4]","[0, -0.4]",3,congruent,,,,,,,,,,,,,,0,40,40,11,,,,,,,,,,,,,,,,,,,,,,,,,,,,,,,,,,,,,,,,,,,,,,,,,,,,,,304.41467319987714,1.0134356999769807,305.42336119990796,305.50655499938875,306.30638509988785,306.4064045995474,306.4064045995474,306.4064045995474,down,1,1.328312100842595,,,,,,,,,,,,,,,,,,,,,,,,,,,,,,,,,,,,003,001,2023-11-15_16h19.43.707,ETproject_Chi_2023.1.1,2023.1.1,59.97123793831685,
112,Week,星期二,星期五,,Vert,early,up,image/Chi_early.png,"[0, 0.4]","[0, -0.4]",3,congruent,,,,,,,,,,,,,,0,41,41,24,,,,,,,,,,,,,,,,,,,,,,,,,,,,,,,,,,,,,,,,,,,,,,,,,,,,,,307.7670872993767,1.015289000235498,308.77211559936404,308.8555769994855,309.6553165996447,309.7553458996117,309.7553458996117,309.7553458996117,up,1,0.8830518005415797,,,,,,,,,,,,,,,,,,,,,,,,,,,,,,,,,,,,003,001,2023-11-15_16h19.43.707,ETproject_Chi_2023.1.1,2023.1.1,59.97123793831685,
120,Week,星期三 ,星期六,,Vert,late,down,image/Chi_late.png,"[0, 0.4]","[0, -0.4]",3,congruent,,,,,,,,,,,,,,0,42,42,34,,,,,,,,,,,,,,,,,,,,,,,,,,,,,,,,,,,,,,,,,,,,,,,,,,,,,,310.6660837000236,1.0147818997502327,311.6712110992521,311.75474849995226,312.55440789926797,312.65424899943173,312.65424899943173,312.65424899943173,down,1,1.3045920012518764,,,,,,,,,,,,,,,,,,,,,,,,,,,,,,,,,,,,003,001,2023-11-15_16h19.43.707,ETproject_Chi_2023.1.1,2023.1.1,59.97123793831685,
63,Month,十二月,九月 ,,Vert,early,down,image/Chi_early.png,"[0, 0.4]","[0, -0.4]",3,incongruent,,,,,,,,,,,,,,0,43,43,22,,,,,,,,,,,,,,,,,,,,,,,,,,,,,,,,,,,,,,,,,,,,,,,,,,,,,,313.9976790994406,1.0139201004058123,315.0035284999758,315.08673579990864,315.88655149936676,315.98649389948696,315.98649389948696,315.98649389948696,down,1,1.2511772010475397,,,,,,,,,,,,,,,,,,,,,,,,,,,,,,,,,,,,003,001,2023-11-15_16h19.43.707,ETproject_Chi_2023.1.1,2023.1.1,59.97123793831685,
127,Week,星期五,星期三 ,,Hori,early,right,image/Chi_early.png,"[-0.4, 0]","[0.4, 0]",2,incongruent,,,,,,,,,,,,,,0,44,44,13,,,,,,,,,,,,,,,,,,,,,,,,,,,,,,,,,,,,,,,,,,,,,,,,,,,,,,317.2747047999874,0.9990272000432014,318.28578289970756,318.3689675992355,319.16880179941654,319.26887539960444,319.26887539960444,319.26887539960444,right,1,1.0332604013383389,,,,,,,,,,,,,,,,,,,,,,,,,,,,,,,,,,,,003,001,2023-11-15_16h19.43.707,ETproject_Chi_2023.1.1,2023.1.1,59.97123793831685,
50,Month,八月,五月,,Hori,late,left,image/Chi_late.png,"[-0.4, 0]","[0.4, 0]",3,incongruent,,,,,,,,,,,,,,0,45,45,35,,,,,,,,,,,,,,,,,,,,,,,,,,,,,,,,,,,,,,,,,,,,,,,,,,,,,,321.32944689970464,1.0141315003857017,322.3345092991367,322.41777839977294,323.2175073996186,323.31749749928713,323.31749749928713,323.31749749928713,left,1,1.2879737010225654,,,,,,,,,,,,,,,,,,,,,,,,,,,,,,,,,,,,003,001,2023-11-15_16h19.43.707,ETproject_Chi_2023.1.1,2023.1.1,59.97123793831685,
24,Month,四月,六月,,Vert,early,up,image/Chi_early.png,"[0, 0.4]","[0, -0.4]",2,congruent,,,,,,,,,,,,,,0,46,46,8,,,,,,,,,,,,,,,,,,,,,,,,,,,,,,,,,,,,,,,,,,,,,,,,,,,,,,324.64530629944056,1.0123845003545284,325.64991959929466,325.7334130993113,326.5332838995382,326.6331492997706,326.6331492997706,326.6331492997706,up,1,1.884591300971806,,,,,,,,,,,,,,,,,,,,,,,,,,,,,,,,,,,,003,001,2023-11-15_16h19.43.707,ETproject_Chi_2023.1.1,2023.1.1,59.97123793831685,
139,Week,星期四,星期一,,Vert,early,down,image/Chi_early.png,"[0, 0.4]","[0, -0.4]",3,incongruent,,,,,,,,,,,,,,0,47,47,7,,,,,,,,,,,,,,,,,,,,,,,,,,,,,,,,,,,,,,,,,,,,,,,,,,,,,,328.5544681996107,0.999146000482142,329.56538479961455,329.6487721996382,330.44839449971914,330.54836369957775,330.54836369957775,330.54836369957775,down,1,1.7291793003678322,,,,,,,,,,,,,,,,,,,,,,,,,,,,,,,,,,,,003,001,2023-11-15_16h19.43.707,ETproject_Chi_2023.1.1,2023.1.1,59.97123793831685,
143,Week,星期六,星期五,,Vert,early,down,image/Chi_early.png,"[0, 0.4]","[0, -0.4]",1,incongruent,,,,,,,,,,,,,,0,48,48,36,,,,,,,,,,,,,,,,,,,,,,,,,,,,,,,,,,,,,,,,,,,,,,,,,,,,,,333.30399999953806,1.015339800156653,334.3140498995781,334.3970698993653,335.1968561997637,335.296944799833,335.296944799833,335.296944799833,down,1,1.460533901117742,,,,,,,,,,,,,,,,,,,,,,,,,,,,,,,,,,,,003,001,2023-11-15_16h19.43.707,ETproject_Chi_2023.1.1,2023.1.1,59.97123793831685,
26,Month,六月,八月,,Vert,early,up,image/Chi_early.png,"[0, 0.4]","[0, -0.4]",2,congruent,,,,,,,,,,,,,,0,49,49,32,,,,,,,,,,,,,,,,,,,,,,,,,,,,,,,,,,,,,,,,,,,,,,,,,,,,,,336.7887102998793,1.0104674007743597,337.79616109933704,337.8792652999982,338.67917579971254,338.7790206996724,338.7790206996724,338.7790206996724,up,1,1.1549355005845428,,,,,,,,,,,,,,,,,,,,,,,,,,,,,,,,,,,,003,001,2023-11-15_16h19.43.707,ETproject_Chi_2023.1.1,2023.1.1,59.97123793831685,
,,,,,,,,,,,,,,,,,,,,,,,,,,,,,,,,,,,,,,,,,,,,,,,,,,,,,,,,,,,,,,,,,,,,,,,,,,,,,,,,,,,,,,,,,,,,,,339.9621021999046,339.9621021999046,space,14.140507901087403,,,,,,,,,,,,,,,,,,,,,,,,,,,,,,,,003,001,2023-11-15_16h19.43.707,ETproject_Chi_2023.1.1,2023.1.1,59.97123793831685,
,,,,,,,,,,,,,Spring 6.jpg,这是春天吗？,是,Left,Break_material/Image/Spring 6.jpg,,,,,,,,,,,,,0,0,0,5,,,,,,,,,,,,,,,,,,,,,,,,,,,,,,,,,,,,,,,,,,,,,,,,,,,,,,,,,,,,,,,,,354.83524399995804,358.1113899992779,358.8392416993156,360.1219099992886,360.1219099992886,360.1219099992886,360.1219099992886,left,0,0.2679741010069847,,,,,,,,,,,,,,,,,,,,,,003,001,2023-11-15_16h19.43.707,ETproject_Chi_2023.1.1,2023.1.1,59.97123793831685,
,,,,,,,,,,,,,Spring 4.jpg,这是秋天吗？,否,Right,Break_material/Image/Spring 4.jpg,,,,,,,,,,,,,0,1,1,3,,,,,,,,,,,,,,,,,,,,,,,,,,,,,,,,,,,,,,,,,,,,,,,,,,,,,,,,,,,,,,,,,360.8449831996113,364.40825970005244,364.8535244995728,366.4195236992091,366.4195236992091,366.4195236992091,366.4195236992091,right,0,0.48333630058914423,,,,,,,,,,,,,,,,,,,,,,003,001,2023-11-15_16h19.43.707,ETproject_Chi_2023.1.1,2023.1.1,59.97123793831685,
,,,,,,,,,,,,,Spring 1.jpg,这是春天吗？,是,Left,Break_material/Image/Spring 1.jpg,,,,,,,,,,,,,0,2,2,0,,,,,,,,,,,,,,,,,,,,,,,,,,,,,,,,,,,,,,,,,,,,,,,,,,,,,,,,,,,,,,,,,367.0906130997464,370.9051271993667,371.1014216998592,372.91741029918194,372.91741029918194,372.91741029918194,372.91741029918194,left,0,0.4566801004111767,,,,,,,,,,,,,,,,,,,,,,003,001,2023-11-15_16h19.43.707,ETproject_Chi_2023.1.1,2023.1.1,59.97123793831685,
,,,,,,,,,,,,,Spring 3.jpg,这是夏天吗？,否,Right,Break_material/Image/Spring 3.jpg,,,,,,,,,,,,,0,3,3,2,,,,,,,,,,,,,,,,,,,,,,,,,,,,,,,,,,,,,,,,,,,,,,,,,,,,,,,,,,,,,,,,,373.45656019914895,377.38675109948963,377.4662615992129,379.3986631995067,379.3986631995067,379.3986631995067,379.3986631995067,left,0,0.7026836005970836,,,,,,,,,,,,,,,,,,,,,,003,001,2023-11-15_16h19.43.707,ETproject_Chi_2023.1.1,2023.1.1,59.97123793831685,
,,,,,,,,,,,,,Spring 5.jpg,这是冬天吗？,否,Right,Break_material/Image/Spring 5.jpg,,,,,,,,,,,,,0,4,4,4,,,,,,,,,,,,,,,,,,,,,,,,,,,,,,,,,,,,,,,,,,,,,,,,,,,,,,,,,,,,,,,,,380.59254259988666,384.1183362994343,384.59726199973375,386.1297474000603,386.1297474000603,386.1297474000603,386.1297474000603,right,0,0.3959637004882097,,,,,,,,,,,,,,,,,,,,,,003,001,2023-11-15_16h19.43.707,ETproject_Chi_2023.1.1,2023.1.1,59.97123793831685,
,,,,,,,,,,,,,Spring 2.jpg,这是冬天吗？,否,Right,Break_material/Image/Spring 2.jpg,,,,,,,,,,,,,0,5,5,1,,,,,,,,,,,,,,,,,,,,,,,,,,,,,,,,,,,,,,,,,,,,,,,,,,,,,,,,,,,,,,,,,386.7733843997121,390.53173549938947,390.77825119998306,392.544343999587,392.544343999587,392.544343999587,392.544343999587,right,0,0.44545340072363615,,,,,,,,,,,,,,,,,,,,,,003,001,2023-11-15_16h19.43.707,ETproject_Chi_2023.1.1,2023.1.1,59.97123793831685,
,,,,,,,,,,,,,,,,,,,,,,,,,,,,,,,,,,,,,,,,,,,,,,,,,,,,,,,,,,,,,,,,,,,,,,,,,,,,,,,,,,,,,,,,,,,,,,,,,,,,,,,,,,,,393.01101280003786,393.01101280003786,space,3.3143886011093855,,,,,,,,,,,,,,,,,,003,001,2023-11-15_16h19.43.707,ETproject_Chi_2023.1.1,2023.1.1,59.97123793831685,
126,Week,星期五,星期二,,Hori,early,right,image/Chi_early.png,"[-0.4, 0]","[0.4, 0]",3,incongruent,,,,,,,,,,,,,,,,,,,,,,0,0,0,17,,,,,,,,,,,,,,,,,,,,,,,,,,,,,,,,,,,,,,,,,,,,,,396.3576466999948,1.0150907998904586,397.35942529980093,397.4427167996764,398.2423467999324,398.3426234992221,398.3426234992221,398.3426234992221,right,1,0.791405200958252,,,,,,,,,,,,,,,,,,,,,,,,,,,,,,,,,,,,003,001,2023-11-15_16h19.43.707,ETproject_Chi_2023.1.1,2023.1.1,59.97123793831685,
98,Week,星期二,星期五,,Hori,early,left,image/Chi_early.png,"[-0.4, 0]","[0.4, 0]",3,congruent,,,,,,,,,,,,,,,,,,,,,,0,1,1,39,,,,,,,,,,,,,,,,,,,,,,,,,,,,,,,,,,,,,,,,,,,,,,399.17544999998063,1.0109732998535037,400.1750571997836,400.25840449985117,401.05831369943917,401.1584467999637,401.1584467999637,401.1584467999637,left,1,0.607553000561893,,,,,,,,,,,,,,,,,,,,,,,,,,,,,,,,,,,,003,001,2023-11-15_16h19.43.707,ETproject_Chi_2023.1.1,2023.1.1,59.97123793831685,
29,Month,五月,九月 ,,Vert,late,down,image/Chi_late.png,"[0, 0.4]","[0, -0.4]",4,congruent,,,,,,,,,,,,,,,,,,,,,,0,2,2,21,,,,,,,,,,,,,,,,,,,,,,,,,,,,,,,,,,,,,,,,,,,,,,401.8073714999482,1.01106830034405,402.807727699168,402.89116019941866,403.69084609951824,403.7908642999828,403.7908642999828,403.7908642999828,down,1,0.9506817003712058,,,,,,,,,,,,,,,,,,,,,,,,,,,,,,,,,,,,003,001,2023-11-15_16h19.43.707,ETproject_Chi_2023.1.1,2023.1.1,59.97123793831685,
123,Week,星期六,星期日,,Vert,late,down,image/Chi_late.png,"[0, 0.4]","[0, -0.4]",1,congruent,,,,,,,,,,,,,,,,,,,,,,0,3,3,31,,,,,,,,,,,,,,,,,,,,,,,,,,,,,,,,,,,,,,,,,,,,,,404.7786621991545,0.9990112008526921,405.79005889967084,405.87352889962494,406.6732781995088,406.77338769938797,406.77338769938797,406.77338769938797,down,1,1.5200595008209348,,,,,,,,,,,,,,,,,,,,,,,,,,,,,,,,,,,,003,001,2023-11-15_16h19.43.707,ETproject_Chi_2023.1.1,2023.1.1,59.97123793831685,
65,Month,七月,五月,,Vert,early,down,image/Chi_early.png,"[0, 0.4]","[0, -0.4]",2,incongruent,,,,,,,,,,,,,,,,,,,,,,0,4,4,11,,,,,,,,,,,,,,,,,,,,,,,,,,,,,,,,,,,,,,,,,,,,,,408.33671829942614,1.0119215995073318,409.3391069993377,409.42233069986105,410.2221223991364,410.3221878996119,410.3221878996119,410.3221878996119,up,0,1.1401189006865025,,,,,,,,,,,,,,,,,,,,,,,,,,,,,,,,,,,,003,001,2023-11-15_16h19.43.707,ETproject_Chi_2023.1.1,2023.1.1,59.97123793831685,
57,Month,三月,二月,,Hori,late,left,image/Chi_late.png,"[-0.4, 0]","[0.4, 0]",1,incongruent,,,,,,,,,,,,,,,,,,,,,,0,5,5,13,,,,,,,,,,,,,,,,,,,,,,,,,,,,,,,,,,,,,,,,,,,,,,411.49831759929657,1.013196099549532,412.50486879982054,412.5879795998335,413.3876919997856,413.487626099959,413.487626099959,413.487626099959,left,1,1.2068329006433487,,,,,,,,,,,,,,,,,,,,,,,,,,,,,,,,,,,,003,001,2023-11-15_16h19.43.707,ETproject_Chi_2023.1.1,2023.1.1,59.97123793831685,
39,Month,十一月 ,七月,,Hori,early,right,image/Chi_early.png,"[-0.4, 0]","[0.4, 0]",4,incongruent,,,,,,,,,,,,,,,,,,,,,,0,6,6,40,,,,,,,,,,,,,,,,,,,,,,,,,,,,,,,,,,,,,,,,,,,,,,414.73221439961344,1.0114337000995874,415.7367663998157,415.82023209985346,416.6200259998441,416.7200074000284,416.7200074000284,416.7200074000284,right,1,0.9101892011240125,,,,,,,,,,,,,,,,,,,,,,,,,,,,,,,,,,,,003,001,2023-11-15_16h19.43.707,ETproject_Chi_2023.1.1,2023.1.1,59.97123793831685,
82,Month,六月,五月,,Vert,late,up,image/Chi_late.png,"[0, 0.4]","[0, -0.4]",1,incongruent,,,,,,,,,,,,,,,,,,,,,,0,7,7,33,,,,,,,,,,,,,,,,,,,,,,,,,,,,,,,,,,,,,,,,,,,,,,417.6646926999092,1.0111600002273917,418.66920379921794,418.75248739961535,419.5521840993315,419.65244890004396,419.65244890004396,419.65244890004396,up,1,1.5935842003673315,,,,,,,,,,,,,,,,,,,,,,,,,,,,,,,,,,,,003,001,2023-11-15_16h19.43.707,ETproject_Chi_2023.1.1,2023.1.1,59.97123793831685,
142,Week,星期日,星期四,,Vert,early,down,image/Chi_early.png,"[0, 0.4]","[0, -0.4]",3,incongruent,,,,,,,,,,,,,,,,,,,,,,0,8,8,35,,,,,,,,,,,,,,,,,,,,,,,,,,,,,,,,,,,,,,,,,,,,,,421.279393799603,1.0118420999497175,422.2847551992163,422.3681286992505,423.1677607996389,423.2677996000275,423.2677996000275,423.2677996000275,down,1,1.1859737001359463,,,,,,,,,,,,,,,,,,,,,,,,,,,,,,,,,,,,003,001,2023-11-15_16h19.43.707,ETproject_Chi_2023.1.1,2023.1.1,59.97123793831685,
84,Month,八月,七月,,Vert,late,up,image/Chi_late.png,"[0, 0.4]","[0, -0.4]",1,incongruent,,,,,,,,,,,,,,,,,,,,,,0,9,9,18,,,,,,,,,,,,,,,,,,,,,,,,,,,,,,,,,,,,,,,,,,,,,,424.4970468999818,1.0133860995993018,425.50037759914994,425.58381989970803,426.38363759964705,426.4835822992027,426.4835822992027,426.4835822992027,up,1,1.2026010006666183,,,,,,,,,,,,,,,,,,,,,,,,,,,,,,,,,,,,003,001,2023-11-15_16h19.43.707,ETproject_Chi_2023.1.1,2023.1.1,59.97123793831685,
60,Month,十二月,十月 ,,Hori,late,left,image/Chi_late.png,"[-0.4, 0]","[0.4, 0]",2,incongruent,,,,,,,,,,,,,,,,,,,,,,0,10,10,45,,,,,,,,,,,,,,,,,,,,,,,,,,,,,,,,,,,,,,,,,,,,,,427.72664839960635,1.0113224005326629,428.73264519963413,428.8160585993901,429.6158908000216,429.71592919994146,429.71592919994146,429.71592919994146,left,1,0.689792100340128,,,,,,,,,,,,,,,,,,,,,,,,,,,,,,,,,,,,003,001,2023-11-15_16h19.43.707,ETproject_Chi_2023.1.1,2023.1.1,59.97123793831685,
2,Month,二月,五月,,Hori,early,left,image/Chi_early.png,"[-0.4, 0]","[0.4, 0]",3,congruent,,,,,,,,,,,,,,,,,,,,,,0,11,11,36,,,,,,,,,,,,,,,,,,,,,,,,,,,,,,,,,,,,,,,,,,,,,,430.4442996997386,1.0103469993919134,431.4484607996419,431.53189799934626,432.33144729956985,432.431488099508,432.431488099508,432.431488099508,left,1,1.061794800683856,,,,,,,,,,,,,,,,,,,,,,,,,,,,,,,,,,,,003,001,2023-11-15_16h19.43.707,ETproject_Chi_2023.1.1,2023.1.1,59.97123793831685,
42,Month,九月 ,十月 ,,Vert,late,down,image/Chi_late.png,"[0, 0.4]","[0, -0.4]",1,congruent,,,,,,,,,,,,,,,,,,,,,,0,12,12,0,,,,,,,,,,,,,,,,,,,,,,,,,,,,,,,,,,,,,,,,,,,,,,433.5269512999803,1.0108972992748022,434.5306650996208,434.6140358997509,435.41383049916476,435.51380999945104,435.51380999945104,435.51380999945104,down,1,1.0613855011761189,,,,,,,,,,,,,,,,,,,,,,,,,,,,,,,,,,,,003,001,2023-11-15_16h19.43.707,ETproject_Chi_2023.1.1,2023.1.1,59.97123793831685,
26,Month,八月,十一月 ,,Vert,early,up,image/Chi_early.png,"[0, 0.4]","[0, -0.4]",3,congruent,,,,,,,,,,,,,,,,,,,,,,0,13,13,44,,,,,,,,,,,,,,,,,,,,,,,,,,,,,,,,,,,,,,,,,,,,,,436.60623539984226,1.0133087998256087,437.61315199919045,437.6963211996481,438.4959156997502,438.5960796000436,438.5960796000436,438.5960796000436,up,1,0.9533304013311863,,,,,,,,,,,,,,,,,,,,,,,,,,,,,,,,,,,,003,001,2023-11-15_16h19.43.707,ETproject_Chi_2023.1.1,2023.1.1,59.97123793831685,
48,Month,十月 ,八月,,Hori,early,right,image/Chi_early.png,"[-0.4, 0]","[0.4, 0]",2,incongruent,,,,,,,,,,,,,,,,,,,,,,0,14,14,32,,,,,,,,,,,,,,,,,,,,,,,,,,,,,,,,,,,,,,,,,,,,,,439.5829701991752,0.9993832996115088,440.59543209988624,440.6787108993158,441.4784804992378,441.57844569999725,441.57844569999725,441.57844569999725,right,1,2.0843578008934855,,,,,,,,,,,,,,,,,,,,,,,,,,,,,,,,,,,,003,001,2023-11-15_16h19.43.707,ETproject_Chi_2023.1.1,2023.1.1,59.97123793831685,
18,Month,九月 ,十二月,,Hori,late,right,image/Chi_late.png,"[-0.4, 0]","[0.4, 0]",3,congruent,,,,,,,,,,,,,,,,,,,,,,0,15,15,9,,,,,,,,,,,,,,,,,,,,,,,,,,,,,,,,,,,,,,,,,,,,,,443.70802509970963,1.0127705996856093,444.71073129959404,444.7942177997902,445.59387019928545,445.69374609924853,445.69374609924853,445.69374609924853,right,1,0.8492234004661441,,,,,,,,,,,,,,,,,,,,,,,,,,,,,,,,,,,,003,001,2023-11-15_16h19.43.707,ETproject_Chi_2023.1.1,2023.1.1,59.97123793831685,
1,Month,一月,四月,,Hori,early,left,image/Chi_early.png,"[-0.4, 0]","[0.4, 0]",3,congruent,,,,,,,,,,,,,,,,,,,,,,0,16,16,34,,,,,,,,,,,,,,,,,,,,,,,,,,,,,,,,,,,,,,,,,,,,,,446.5748075991869,1.0113516002893448,447.5764121999964,447.6598026994616,448.4594581993297,448.5593776991591,448.5593776991591,448.5593776991591,left,1,0.926523300819099,,,,,,,,,,,,,,,,,,,,,,,,,,,,,,,,,,,,003,001,2023-11-15_16h19.43.707,ETproject_Chi_2023.1.1,2023.1.1,59.97123793831685,
61,Month,十月 ,七月,,Vert,early,down,image/Chi_early.png,"[0, 0.4]","[0, -0.4]",3,incongruent,,,,,,,,,,,,,,,,,,,,,,0,17,17,16,,,,,,,,,,,,,,,,,,,,,,,,,,,,,,,,,,,,,,,,,,,,,,449.5191333992407,1.0103997001424432,450.5254612993449,450.60874679964036,451.40849379915744,451.5085120992735,451.5085120992735,451.5085120992735,down,1,1.1374295009300113,,,,,,,,,,,,,,,,,,,,,,,,,,,,,,,,,,,,003,001,2023-11-15_16h19.43.707,ETproject_Chi_2023.1.1,2023.1.1,59.97123793831685,
6,Month,六月,九月 ,,Hori,early,left,image/Chi_early.png,"[-0.4, 0]","[0.4, 0]",3,congruent,,,,,,,,,,,,,,,,,,,,,,0,18,18,25,,,,,,,,,,,,,,,,,,,,,,,,,,,,,,,,,,,,,,,,,,,,,,453.6801771996543,1.0146425003185868,454.690803299658,454.7741470998153,455.5738262999803,455.6738987993449,455.6738987993449,455.6738987993449,left,1,0.996886900626123,,,,,,,,,,,,,,,,,,,,,,,,,,,,,,,,,,,,003,001,2023-11-15_16h19.43.707,ETproject_Chi_2023.1.1,2023.1.1,59.97123793831685,
16,Month,七月,十月 ,,Hori,late,right,image/Chi_late.png,"[-0.4, 0]","[0.4, 0]",3,congruent,,,,,,,,,,,,,,,,,,,,,,0,19,19,43,,,,,,,,,,,,,,,,,,,,,,,,,,,,,,,,,,,,,,,,,,,,,,456.69850499928,1.01481410022825,457.70657399948686,457.78970079962164,458.589419699274,458.6893261997029,458.6893261997029,458.6893261997029,right,1,1.2055183006450534,,,,,,,,,,,,,,,,,,,,,,,,,,,,,,,,,,,,003,001,2023-11-15_16h19.43.707,ETproject_Chi_2023.1.1,2023.1.1,59.97123793831685,
46,Month,八月,六月,,Hori,early,right,image/Chi_early.png,"[-0.4, 0]","[0.4, 0]",2,incongruent,,,,,,,,,,,,,,,,,,,,,,0,20,20,6,,,,,,,,,,,,,,,,,,,,,,,,,,,,,,,,,,,,,,,,,,,,,,459.9305232996121,1.015315200202167,460.9385162992403,461.02179259993136,461.82168459985405,461.9216960994527,461.9216960994527,461.9216960994527,right,1,0.9166343007236719,,,,,,,,,,,,,,,,,,,,,,,,,,,,,,,,,,,,003,001,2023-11-15_16h19.43.707,ETproject_Chi_2023.1.1,2023.1.1,59.97123793831685,
55,Month,四月,一月,,Vert,early,down,image/Chi_early.png,"[0, 0.4]","[0, -0.4]",3,incongruent,,,,,,,,,,,,,,,,,,,,,,0,21,21,22,,,,,,,,,,,,,,,,,,,,,,,,,,,,,,,,,,,,,,,,,,,,,,462.86037639994174,1.0136145995929837,463.8709754999727,463.95437349937856,464.7542025996372,464.8540304992348,464.8540304992348,464.8540304992348,down,1,0.9996670000255108,,,,,,,,,,,,,,,,,,,,,,,,,,,,,,,,,,,,003,001,2023-11-15_16h19.43.707,ETproject_Chi_2023.1.1,2023.1.1,59.97123793831685,
102,Week,星期六,星期日,,Hori,early,left,image/Chi_early.png,"[-0.4, 0]","[0.4, 0]",1,congruent,,,,,,,,,,,,,,,,,,,,,,0,22,22,15,,,,,,,,,,,,,,,,,,,,,,,,,,,,,,,,,,,,,,,,,,,,,,465.8786780992523,1.0118260998278856,466.8865954997018,466.97002849914134,467.76971669960767,467.8697027992457,467.8697027992457,467.8697027992457,left,1,0.8014146005734801,,,,,,,,,,,,,,,,,,,,,,,,,,,,,,,,,,,,003,001,2023-11-15_16h19.43.707,ETproject_Chi_2023.1.1,2023.1.1,59.97123793831685,
34,Month,四月,六月,,Vert,late,down,image/Chi_late.png,"[0, 0.4]","[0, -0.4]",2,congruent,,,,,,,,,,,,,,,,,,,,,,0,23,23,38,,,,,,,,,,,,,,,,,,,,,,,,,,,,,,,,,,,,,,,,,,,,,,468.7166648991406,1.010887499898672,469.71909379959106,469.8024920998141,470.6021300991997,470.7022249996662,470.7022249996662,470.7022249996662,down,1,1.3191577000543475,,,,,,,,,,,,,,,,,,,,,,,,,,,,,,,,,,,,003,001,2023-11-15_16h19.43.707,ETproject_Chi_2023.1.1,2023.1.1,59.97123793831685,
10,Month,二月,六月,,Hori,late,right,image/Chi_late.png,"[-0.4, 0]","[0.4, 0]",4,congruent,,,,,,,,,,,,,,,,,,,,,,0,24,24,37,,,,,,,,,,,,,,,,,,,,,,,,,,,,,,,,,,,,,,,,,,,,,,472.0609786994755,1.009532400406897,473.06790709961206,473.1514174994081,473.9510498996824,474.05098249949515,474.05098249949515,474.05098249949515,right,1,0.7231491003185511,,,,,,,,,,,,,,,,,,,,,,,,,,,,,,,,,,,,003,001,2023-11-15_16h19.43.707,ETproject_Chi_2023.1.1,2023.1.1,59.97123793831685,
99,Week,星期三 ,星期五,,Hori,early,left,image/Chi_early.png,"[-0.4, 0]","[0.4, 0]",2,congruent,,,,,,,,,,,,,,,,,,,,,,0,25,25,3,,,,,,,,,,,,,,,,,,,,,,,,,,,,,,,,,,,,,,,,,,,,,,474.8190764999017,1.0108901001513004,475.8337385999039,475.9003233993426,476.7002677991986,476.8002530997619,476.8002530997619,476.8002530997619,left,1,2.1586356004700065,,,,,,,,,,,,,,,,,,,,,,,,,,,,,,,,,,,,003,001,2023-11-15_16h19.43.707,ETproject_Chi_2023.1.1,2023.1.1,59.97123793831685,
23,Month,一月,二月 ,,Vert,early,up,image/Chi_early.png,"[0, 0.4]","[0, -0.4]",1,congruent,,,,,,,,,,,,,,,,,,,,,,0,26,26,30,,,,,,,,,,,,,,,,,,,,,,,,,,,,,,,,,,,,,,,,,,,,,,478.9886598000303,1.015340999700129,479.9993576994166,480.0822597993538,480.88212829921395,480.98221489973366,480.98221489973366,480.98221489973366,up,1,1.2967241005972028,,,,,,,,,,,,,,,,,,,,,,,,,,,,,,,,,,,,003,001,2023-11-15_16h19.43.707,ETproject_Chi_2023.1.1,2023.1.1,59.97123793831685,
39,Month,九月 ,十一月 ,,Vert,late,down,image/Chi_late.png,"[0, 0.4]","[0, -0.4]",2,congruent,,,,,,,,,,,,,,,,,,,,,,0,27,27,14,,,,,,,,,,,,,,,,,,,,,,,,,,,,,,,,,,,,,,,,,,,,,,482.3128146994859,1.011488700285554,483.31471499986947,483.3982211994007,484.19770549982786,484.29759029950947,484.29759029950947,484.29759029950947,down,1,0.8769166013225913,,,,,,,,,,,,,,,,,,,,,,,,,,,,,,,,,,,,003,001,2023-11-15_16h19.43.707,ETproject_Chi_2023.1.1,2023.1.1,59.97123793831685,
13,Month,二月,三月,,Hori,late,right,image/Chi_late.png,"[-0.4, 0]","[0.4, 0]",1,congruent,,,,,,,,,,,,,,,,,,,,,,0,28,28,42,,,,,,,,,,,,,,,,,,,,,,,,,,,,,,,,,,,,,,,,,,,,,,485.2027517994866,1.014117599464953,486.2136126998812,486.29705369938165,487.09670679923147,487.19668000005186,487.19668000005186,487.19668000005186,right,1,1.201226701028645,,,,,,,,,,,,,,,,,,,,,,,,,,,,,,,,,,,,003,001,2023-11-15_16h19.43.707,ETproject_Chi_2023.1.1,2023.1.1,59.97123793831685,
14,Month,四月,六月,,Hori,late,right,image/Chi_late.png,"[-0.4, 0]","[0.4, 0]",2,congruent,,,,,,,,,,,,,,,,,,,,,,0,29,29,26,,,,,,,,,,,,,,,,,,,,,,,,,,,,,,,,,,,,,,,,,,,,,,488.4357795994729,1.015275999903679,489.4460764992982,489.52915629930794,490.3289334997535,490.4288994995877,490.4288994995877,490.4288994995877,right,1,0.809892900288105,,,,,,,,,,,,,,,,,,,,,,,,,,,,,,,,,,,,003,001,2023-11-15_16h19.43.707,ETproject_Chi_2023.1.1,2023.1.1,59.97123793831685,
70,Month,十月 ,七月,,Vert,late,up,image/Chi_late.png,"[0, 0.4]","[0, -0.4]",3,incongruent,,,,,,,,,,,,,,,,,,,,,,0,30,30,19,,,,,,,,,,,,,,,,,,,,,,,,,,,,,,,,,,,,,,,,,,,,,,491.27165939938277,1.013662800192833,492.27831839956343,492.36175669915974,493.1615176992491,493.26134369987994,493.26134369987994,493.26134369987994,up,1,1.3368560010567307,,,,,,,,,,,,,,,,,,,,,,,,,,,,,,,,,,,,003,001,2023-11-15_16h19.43.707,ETproject_Chi_2023.1.1,2023.1.1,59.97123793831685,
11,Month,十一月 ,十二月,,Hori,early,left,image/Chi_early.png,"[-0.4, 0]","[0.4, 0]",1,congruent,,,,,,,,,,,,,,,,,,,,,,0,31,31,28,,,,,,,,,,,,,,,,,,,,,,,,,,,,,,,,,,,,,,,,,,,,,,494.63941299915314,1.0149146998301148,495.64385449979454,495.72708809934556,496.52707479987293,496.6268464997411,496.6268464997411,496.6268464997411,left,1,1.2913494007661939,,,,,,,,,,,,,,,,,,,,,,,,,,,,,,,,,,,,003,001,2023-11-15_16h19.43.707,ETproject_Chi_2023.1.1,2023.1.1,59.97123793831685,
108,Week,星期五,星期六,,Hori,late,right,image/Chi_late.png,"[-0.4, 0]","[0.4, 0]",1,congruent,,,,,,,,,,,,,,,,,,,,,,0,32,32,1,,,,,,,,,,,,,,,,,,,,,,,,,,,,,,,,,,,,,,,,,,,,,,497.9560789996758,1.0110187996178865,498.9593771994114,499.04268129915,499.84245029930025,499.9425049992278,499.9425049992278,499.9425049992278,right,1,2.44795920047909,,,,,,,,,,,,,,,,,,,,,,,,,,,,,,,,,,,,003,001,2023-11-15_16h19.43.707,ETproject_Chi_2023.1.1,2023.1.1,59.97123793831685,
141,Week,星期六,星期三 ,,Vert,early,down,image/Chi_early.png,"[0, 0.4]","[0, -0.4]",3,incongruent,,,,,,,,,,,,,,,,,,,,,,0,33,33,29,,,,,,,,,,,,,,,,,,,,,,,,,,,,,,,,,,,,,,,,,,,,,,502.41874589957297,1.0130545999854803,503.42483039945364,503.5079504996538,504.307852499187,504.4076539995149,504.4076539995149,504.4076539995149,down,1,0.9989627003669739,,,,,,,,,,,,,,,,,,,,,,,,,,,,,,,,,,,,003,001,2023-11-15_16h19.43.707,ETproject_Chi_2023.1.1,2023.1.1,59.97123793831685,
72,Month,四月,二月,,Vert,late,up,image/Chi_late.png,"[0, 0.4]","[0, -0.4]",2,incongruent,,,,,,,,,,,,,,,,,,,,,,0,34,34,41,,,,,,,,,,,,,,,,,,,,,,,,,,,,,,,,,,,,,,,,,,,,,,505.4361386997625,1.0118582993745804,506.44023819919676,506.52364789973944,507.3234898997471,507.42357419990003,507.42357419990003,507.42357419990003,up,1,0.9747128011658788,,,,,,,,,,,,,,,,,,,,,,,,,,,,,,,,,,,,003,001,2023-11-15_16h19.43.707,ETproject_Chi_2023.1.1,2023.1.1,59.97123793831685,
114,Week,星期四,星期五,,Vert,early,up,image/Chi_early.png,"[0, 0.4]","[0, -0.4]",1,congruent,,,,,,,,,,,,,,,,,,,,,,0,35,35,10,,,,,,,,,,,,,,,,,,,,,,,,,,,,,,,,,,,,,,,,,,,,,,508.44131789915264,1.0099786994978786,509.4560600994155,509.5227718995884,510.3223926993087,510.4224780993536,510.4224780993536,510.4224780993536,up,1,0.9754641000181437,,,,,,,,,,,,,,,,,,,,,,,,,,,,,,,,,,,,003,001,2023-11-15_16h19.43.707,ETproject_Chi_2023.1.1,2023.1.1,59.97123793831685,
134,Week,星期五,星期三 ,,Hori,late,left,image/Chi_late.png,"[-0.4, 0]","[0.4, 0]",2,incongruent,,,,,,,,,,,,,,,,,,,,,,0,36,36,47,,,,,,,,,,,,,,,,,,,,,,,,,,,,,,,,,,,,,,,,,,,,,,511.4384635994211,1.0093696992844343,512.4383002994582,512.5217349994928,513.3213473996148,513.4213611995801,513.4213611995801,513.4213611995801,left,1,0.9847396006807685,,,,,,,,,,,,,,,,,,,,,,,,,,,,,,,,,,,,003,001,2023-11-15_16h19.43.707,ETproject_Chi_2023.1.1,2023.1.1,59.97123793831685,
68,Month,十月 ,八月,,Vert,early,down,image/Chi_early.png,"[0, 0.4]","[0, -0.4]",2,incongruent,,,,,,,,,,,,,,,,,,,,,,0,37,37,48,,,,,,,,,,,,,,,,,,,,,,,,,,,,,,,,,,,,,,,,,,,,,,514.4486076999456,1.0119064003229141,515.4539987994358,515.5373975997791,516.3369936998934,516.4370146999136,516.4370146999136,516.4370146999136,down,1,1.3934971010312438,,,,,,,,,,,,,,,,,,,,,,,,,,,,,,,,,,,,003,001,2023-11-15_16h19.43.707,ETproject_Chi_2023.1.1,2023.1.1,59.97123793831685,
126,Week,星期四,星期二,,Hori,early,right,image/Chi_early.png,"[-0.4, 0]","[0.4, 0]",2,incongruent,,,,,,,,,,,,,,,,,,,,,,0,38,38,24,,,,,,,,,,,,,,,,,,,,,,,,,,,,,,,,,,,,,,,,,,,,,,517.8640974992886,1.0102324998006225,518.8698117993772,518.952974899672,519.7526036994532,519.8526941994205,519.8526941994205,519.8526941994205,right,1,0.6010642005130649,,,,,,,,,,,,,,,,,,,,,,,,,,,,,,,,,,,,003,001,2023-11-15_16h19.43.707,ETproject_Chi_2023.1.1,2023.1.1,59.97123793831685,
21,Month,十月 ,十一月 ,,Hori,late,right,image/Chi_late.png,"[-0.4, 0]","[0.4, 0]",1,congruent,,,,,,,,,,,,,,,,,,,,,,0,39,39,5,,,,,,,,,,,,,,,,,,,,,,,,,,,,,,,,,,,,,,,,,,,,,,520.4933735998347,0.9992271000519395,521.501845699735,521.5852850992233,522.3853338994086,522.4852288998663,522.4852288998663,522.4852288998663,left,0,1.5848417012020946,,,,,,,,,,,,,,,,,,,,,,,,,,,,,,,,,,,,003,001,2023-11-15_16h19.43.707,ETproject_Chi_2023.1.1,2023.1.1,59.97123793831685,
16,Month,八月,十二月,,Hori,late,right,image/Chi_late.png,"[-0.4, 0]","[0.4, 0]",4,congruent,,,,,,,,,,,,,,,,,,,,,,0,40,40,27,,,,,,,,,,,,,,,,,,,,,,,,,,,,,,,,,,,,,,,,,,,,,,524.1127839991823,1.0103796999901533,525.1175868995488,525.2008730992675,526.0004610996693,526.1006515994668,526.1006515994668,526.1006515994668,right,1,1.0647902013733983,,,,,,,,,,,,,,,,,,,,,,,,,,,,,,,,,,,,003,001,2023-11-15_16h19.43.707,ETproject_Chi_2023.1.1,2023.1.1,59.97123793831685,
59,Month,五月,四月,,Hori,late,left,image/Chi_late.png,"[-0.4, 0]","[0.4, 0]",1,incongruent,,,,,,,,,,,,,,,,,,,,,,0,41,41,12,,,,,,,,,,,,,,,,,,,,,,,,,,,,,,,,,,,,,,,,,,,,,,527.190464399755,1.0122726997360587,528.1999539993703,528.2831213995814,529.0828752992675,529.182845399715,529.182845399715,529.182845399715,left,1,2.1361370999366045,,,,,,,,,,,,,,,,,,,,,,,,,,,,,,,,,,,,003,001,2023-11-15_16h19.43.707,ETproject_Chi_2023.1.1,2023.1.1,59.97123793831685,
7,Month,七月,十一月 ,,Hori,early,left,image/Chi_early.png,"[-0.4, 0]","[0.4, 0]",4,congruent,,,,,,,,,,,,,,,,,,,,,,0,42,42,49,,,,,,,,,,,,,,,,,,,,,,,,,,,,,,,,,,,,,,,,,,,,,,531.3564003994688,0.9990857997909188,532.3651315998286,532.4485481996089,533.2482800995931,533.3481281995773,533.3481281995773,533.3481281995773,left,1,1.1851679999381304,,,,,,,,,,,,,,,,,,,,,,,,,,,,,,,,,,,,003,001,2023-11-15_16h19.43.707,ETproject_Chi_2023.1.1,2023.1.1,59.97123793831685,
57,Month,六月,三月,,Vert,early,down,image/Chi_early.png,"[0, 0.4]","[0, -0.4]",3,incongruent,,,,,,,,,,,,,,,,,,,,,,0,43,43,4,,,,,,,,,,,,,,,,,,,,,,,,,,,,,,,,,,,,,,,,,,,,,,534.568644599989,0.9991327999159694,535.5806318996474,535.6641266997904,536.463696799241,536.5637430995703,536.5637430995703,536.5637430995703,down,1,1.2825179006904364,,,,,,,,,,,,,,,,,,,,,,,,,,,,,,,,,,,,003,001,2023-11-15_16h19.43.707,ETproject_Chi_2023.1.1,2023.1.1,59.97123793831685,
43,Month,十月 ,七月,,Hori,early,right,image/Chi_early.png,"[-0.4, 0]","[0.4, 0]",3,incongruent,,,,,,,,,,,,,,,,,,,,,,0,44,44,7,,,,,,,,,,,,,,,,,,,,,,,,,,,,,,,,,,,,,,,,,,,,,,537.8721989998594,1.0111648999154568,538.8795121992007,538.9630066994578,539.7626413991675,539.8628930998966,539.8628930998966,539.8628930998966,right,1,0.7275017006322742,,,,,,,,,,,,,,,,,,,,,,,,,,,,,,,,,,,,003,001,2023-11-15_16h19.43.707,ETproject_Chi_2023.1.1,2023.1.1,59.97123793831685,
4,Month,四月,六月,,Hori,early,left,image/Chi_early.png,"[-0.4, 0]","[0.4, 0]",2,congruent,,,,,,,,,,,,,,,,,,,,,,0,45,45,20,,,,,,,,,,,,,,,,,,,,,,,,,,,,,,,,,,,,,,,,,,,,,,540.6186390994117,1.0151524003595114,541.628729599528,541.7121985992417,542.5117768999189,542.6118383994326,542.6118383994326,542.6118383994326,left,1,0.6904566008597612,,,,,,,,,,,,,,,,,,,,,,,,,,,,,,,,,,,,003,001,2023-11-15_16h19.43.707,ETproject_Chi_2023.1.1,2023.1.1,59.97123793831685,
21,Month,五月,九月 ,,Vert,early,up,image/Chi_early.png,"[0, 0.4]","[0, -0.4]",4,congruent,,,,,,,,,,,,,,,,,,,,,,0,46,46,46,,,,,,,,,,,,,,,,,,,,,,,,,,,,,,,,,,,,,,,,,,,,,,543.336760699749,1.0118135996162891,544.3444342995062,544.4278232995421,545.2275931993499,545.3275029994547,545.3275029994547,545.3275029994547,up,1,1.374320900067687,,,,,,,,,,,,,,,,,,,,,,,,,,,,,,,,,,,,003,001,2023-11-15_16h19.43.707,ETproject_Chi_2023.1.1,2023.1.1,59.97123793831685,
25,Month,一月,五月,,Vert,late,down,image/Chi_late.png,"[0, 0.4]","[0, -0.4]",4,congruent,,,,,,,,,,,,,,,,,,,,,,0,47,47,23,,,,,,,,,,,,,,,,,,,,,,,,,,,,,,,,,,,,,,,,,,,,,,547.7369268992916,1.0152262998744845,548.7429907992482,548.8262466993183,549.625980399549,549.7260350994766,549.7260350994766,549.7260350994766,down,1,0.8088038014248013,,,,,,,,,,,,,,,,,,,,,,,,,,,,,,,,,,,,003,001,2023-11-15_16h19.43.707,ETproject_Chi_2023.1.1,2023.1.1,59.97123793831685,
111,Week,星期一,星期三 ,,Vert,early,up,image/Chi_early.png,"[0, 0.4]","[0, -0.4]",2,congruent,,,,,,,,,,,,,,,,,,,,,,0,48,48,8,,,,,,,,,,,,,,,,,,,,,,,,,,,,,,,,,,,,,,,,,,,,,,551.5708705997095,1.0149518996477127,552.5751507999375,552.6584794996306,553.4583099996671,553.5582333998755,553.5582333998755,553.5582333998755,up,1,0.6080460008233786,,,,,,,,,,,,,,,,,,,,,,,,,,,,,,,,,,,,003,001,2023-11-15_16h19.43.707,ETproject_Chi_2023.1.1,2023.1.1,59.97123793831685,
53,Month,五月,三月,,Hori,late,left,image/Chi_late.png,"[-0.4, 0]","[0.4, 0]",2,incongruent,,,,,,,,,,,,,,,,,,,,,,0,49,49,2,,,,,,,,,,,,,,,,,,,,,,,,,,,,,,,,,,,,,,,,,,,,,,555.2008320000023,1.0148344999179244,556.2070867000148,556.2905291998759,557.0902114994824,557.1903424998745,557.1903424998745,557.1903424998745,left,1,0.7445605006068945,,,,,,,,,,,,,,,,,,,,,,,,,,,,,,,,,,,,003,001,2023-11-15_16h19.43.707,ETproject_Chi_2023.1.1,2023.1.1,59.97123793831685,
,,,,,,,,,,,,,,,,,,,,,,,,,,,,,,,,,,,,,,,,,,,,,,,,,,,,,,,,,,,,,,,,,,,,,,,,,,,,,,,,,,,,,,,,,,,,,,,,,,,,,,,,,,,,,,,,557.9568660994992,557.9568660994992,space,3.3129481012001634,,,,,,,,,,,,,,003,001,2023-11-15_16h19.43.707,ETproject_Chi_2023.1.1,2023.1.1,59.97123793831685,
,,,,,,,,,,,,,Spring 2.jpg,这是冬天吗？,否,Right,Break_material/Image/Spring 2.jpg,,,,,,,,,,,,,,,,,,,,,0,0,0,1,,,,,,,,,,,,,,,,,,,,,,,,,,,,,,,,,,,,,,,,,,,,,,,,,,,,,,,,,561.358372299932,565.2743339994922,565.3544545993209,567.2870323993266,567.2870323993266,567.2870323993266,567.2870323993266,right,0,0.3994287010282278,,,,,,,,,,,,,,,,,,,,,,003,001,2023-11-15_16h19.43.707,ETproject_Chi_2023.1.1,2023.1.1,59.97123793831685,
,,,,,,,,,,,,,Spring 4.jpg,这是秋天吗？,否,Right,Break_material/Image/Spring 4.jpg,,,,,,,,,,,,,,,,,,,,,0,1,1,3,,,,,,,,,,,,,,,,,,,,,,,,,,,,,,,,,,,,,,,,,,,,,,,,,,,,,,,,,567.9332729997113,571.6895491993055,571.9353641998023,573.701485899277,573.701485899277,573.701485899277,573.701485899277,right,0,0.6412681005895138,,,,,,,,,,,,,,,,,,,,,,003,001,2023-11-15_16h19.43.707,ETproject_Chi_2023.1.1,2023.1.1,59.97123793831685,
,,,,,,,,,,,,,Spring 1.jpg,这是春天吗？,是,Left,Break_material/Image/Spring 1.jpg,,,,,,,,,,,,,,,,,,,,,0,2,2,0,,,,,,,,,,,,,,,,,,,,,,,,,,,,,,,,,,,,,,,,,,,,,,,,,,,,,,,,,574.4288521995768,578.353269699961,578.4333782996982,580.3660765998065,580.3660765998065,580.3660765998065,580.3660765998065,left,0,0.3433058010414243,,,,,,,,,,,,,,,,,,,,,,003,001,2023-11-15_16h19.43.707,ETproject_Chi_2023.1.1,2023.1.1,59.97123793831685,
,,,,,,,,,,,,,Spring 5.jpg,这是冬天吗？,否,Right,Break_material/Image/Spring 5.jpg,,,,,,,,,,,,,,,,,,,,,0,3,3,4,,,,,,,,,,,,,,,,,,,,,,,,,,,,,,,,,,,,,,,,,,,,,,,,,,,,,,,,,581.2033303994685,584.7191312992945,585.1977213993669,586.7305262992159,586.7305262992159,586.7305262992159,586.7305262992159,right,0,0.6833099005743861,,,,,,,,,,,,,,,,,,,,,,003,001,2023-11-15_16h19.43.707,ETproject_Chi_2023.1.1,2023.1.1,59.97123793831685,
,,,,,,,,,,,,,Spring 3.jpg,这是夏天吗？,否,Right,Break_material/Image/Spring 3.jpg,,,,,,,,,,,,,,,,,,,,,0,4,4,2,,,,,,,,,,,,,,,,,,,,,,,,,,,,,,,,,,,,,,,,,,,,,,,,,,,,,,,,,587.6570796994492,591.4161800993606,591.6620995998383,593.4281444996595,593.4281444996595,593.4281444996595,593.4281444996595,left,0,0.4332590000703931,,,,,,,,,,,,,,,,,,,,,,003,001,2023-11-15_16h19.43.707,ETproject_Chi_2023.1.1,2023.1.1,59.97123793831685,
,,,,,,,,,,,,,,,,,,,,,,,,,,,,,,,,,,,,,,,,,,,,,,,,,,,,,,,,,,,,,,,,,,,,,,,,,,,,,,,,,,,,,,,,,,,,,,,,,,,,,,,,,,,,,,,,,,,,593.8780490998179,593.8780490998179,space,1.9843802005052567,,,,,,,,,,003,001,2023-11-15_16h19.43.707,ETproject_Chi_2023.1.1,2023.1.1,59.97123793831685,
51,Month,七月,三月,,Vert,early,down,image/Chi_early.png,"[0, 0.4]","[0, -0.4]",4,incongruent,,,,,,,,,,,,,,,,,,,,,,,,,,,,,,0,0,0,12,,,,,,,,,,,,,,,,,,,,,,,,,,,,,,,,,,,,,,595.909528799355,0.9994527995586395,596.9103433992714,596.9935203995556,597.793413599953,597.8932845992967,597.8932845992967,597.8932845992967,down,1,0.8567361002787948,,,,,,,,,,,,,,,,,,,,,,,,,,,,,,,,,,,,003,001,2023-11-15_16h19.43.707,ETproject_Chi_2023.1.1,2023.1.1,59.97123793831685,
118,Week,星期一,星期三 ,,Vert,late,down,image/Chi_late.png,"[0, 0.4]","[0, -0.4]",2,congruent,,,,,,,,,,,,,,,,,,,,,,,,,,,,,,0,1,1,43,,,,,,,,,,,,,,,,,,,,,,,,,,,,,,,,,,,,,,598.7890660995618,1.0105157997459173,599.7925948994234,599.8758886000142,600.6756417993456,600.7757263993844,600.7757263993844,600.7757263993844,down,1,1.0135629009455442,,,,,,,,,,,,,,,,,,,,,,,,,,,,,,,,,,,,003,001,2023-11-15_16h19.43.707,ETproject_Chi_2023.1.1,2023.1.1,59.97123793831685,
55,Month,七月,五月,,Hori,late,left,image/Chi_late.png,"[-0.4, 0]","[0.4, 0]",2,incongruent,,,,,,,,,,,,,,,,,,,,,,,,,,,,,,0,2,2,11,,,,,,,,,,,,,,,,,,,,,,,,,,,,,,,,,,,,,,601.817285399884,1.0108483005315065,602.8251209994778,602.9082508999854,603.7079944992438,603.8079462992027,603.8079462992027,603.8079462992027,left,1,0.8305601011961699,,,,,,,,,,,,,,,,,,,,,,,,,,,,,,,,,,,,003,001,2023-11-15_16h19.43.707,ETproject_Chi_2023.1.1,2023.1.1,59.97123793831685,
69,Month,十一月 ,九月 ,,Vert,early,down,image/Chi_early.png,"[0, 0.4]","[0, -0.4]",2,incongruent,,,,,,,,,,,,,,,,,,,,,,,,,,,,,,0,3,3,32,,,,,,,,,,,,,,,,,,,,,,,,,,,,,,,,,,,,,,605.6667106999084,1.0152405006811023,606.6735671991482,606.7571390997618,607.5568414991722,607.6567591996863,607.6567591996863,607.6567591996863,down,1,1.7808600012212992,,,,,,,,,,,,,,,,,,,,,,,,,,,,,,,,,,,,003,001,2023-11-15_16h19.43.707,ETproject_Chi_2023.1.1,2023.1.1,59.97123793831685,
133,Week,星期五,星期二,,Hori,late,left,image/Chi_late.png,"[-0.4, 0]","[0.4, 0]",3,incongruent,,,,,,,,,,,,,,,,,,,,,,,,,,,,,,0,4,4,49,,,,,,,,,,,,,,,,,,,,,,,,,,,,,,,,,,,,,,609.4680538000539,1.0110554993152618,610.4726646998897,610.5558410994709,611.3554370999336,611.4555813996121,611.4555813996121,611.4555813996121,left,1,0.9103321004658937,,,,,,,,,,,,,,,,,,,,,,,,,,,,,,,,,,,,003,001,2023-11-15_16h19.43.707,ETproject_Chi_2023.1.1,2023.1.1,59.97123793831685,
58,Month,十月 ,八月,,Hori,late,left,image/Chi_late.png,"[-0.4, 0]","[0.4, 0]",2,incongruent,,,,,,,,,,,,,,,,,,,,,,,,,,,,,,0,5,5,26,,,,,,,,,,,,,,,,,,,,,,,,,,,,,,,,,,,,,,612.392516899854,0.9994763992726803,613.4047332992777,613.4881130000576,614.2878314992413,614.3878761995584,614.3878761995584,614.3878761995584,left,1,0.8901991005986929,,,,,,,,,,,,,,,,,,,,,,,,,,,,,,,,,,,,003,001,2023-11-15_16h19.43.707,ETproject_Chi_2023.1.1,2023.1.1,59.97123793831685,
36,Month,八月,四月,,Hori,early,right,image/Chi_early.png,"[-0.4, 0]","[0.4, 0]",4,incongruent,,,,,,,,,,,,,,,,,,,,,,,,,,,,,,0,6,6,27,,,,,,,,,,,,,,,,,,,,,,,,,,,,,,,,,,,,,,615.3151882998645,1.0112663991749287,616.3204571995884,616.4037886997685,617.2035288996994,617.3034419994801,617.3034419994801,617.3034419994801,right,1,0.727067100815475,,,,,,,,,,,,,,,,,,,,,,,,,,,,,,,,,,,,003,001,2023-11-15_16h19.43.707,ETproject_Chi_2023.1.1,2023.1.1,59.97123793831685,
38,Month,五月,六月,,Vert,late,down,image/Chi_late.png,"[0, 0.4]","[0, -0.4]",1,congruent,,,,,,,,,,,,,,,,,,,,,,,,,,,,,,0,7,7,20,,,,,,,,,,,,,,,,,,,,,,,,,,,,,,,,,,,,,,618.0656888997182,1.0110453004017472,619.0695604998618,619.1529524996877,619.9527646992356,620.0527511993423,620.0527511993423,620.0527511993423,down,1,1.0571408001706004,,,,,,,,,,,,,,,,,,,,,,,,,,,,,,,,,,,,003,001,2023-11-15_16h19.43.707,ETproject_Chi_2023.1.1,2023.1.1,59.97123793831685,
149,Week,星期五,星期四,,Vert,late,up,image/Chi_late.png,"[0, 0.4]","[0, -0.4]",1,incongruent,,,,,,,,,,,,,,,,,,,,,,,,,,,,,,0,8,8,8,,,,,,,,,,,,,,,,,,,,,,,,,,,,,,,,,,,,,,621.1448786994442,1.011621800251305,622.1517787994817,622.2351749995723,623.0349874999374,623.1351986993104,623.1351986993104,623.1351986993104,up,1,0.9823923008516431,,,,,,,,,,,,,,,,,,,,,,,,,,,,,,,,,,,,003,001,2023-11-15_16h19.43.707,ETproject_Chi_2023.1.1,2023.1.1,59.97123793831685,
15,Month,七月,十一月 ,,Hori,late,right,image/Chi_late.png,"[-0.4, 0]","[0.4, 0]",4,congruent,,,,,,,,,,,,,,,,,,,,,,,,,,,,,,0,9,9,15,,,,,,,,,,,,,,,,,,,,,,,,,,,,,,,,,,,,,,625.1395517997444,1.0144232008606195,626.1504917992279,626.234115799889,627.0336431991309,627.1337781995535,627.1337781995535,627.1337781995535,right,1,0.9202218009158969,,,,,,,,,,,,,,,,,,,,,,,,,,,,,,,,,,,,003,001,2023-11-15_16h19.43.707,ETproject_Chi_2023.1.1,2023.1.1,59.97123793831685,
119,Week,星期二,星期四,,Vert,late,down,image/Chi_late.png,"[0, 0.4]","[0, -0.4]",2,congruent,,,,,,,,,,,,,,,,,,,,,,,,,,,,,,0,10,10,45,,,,,,,,,,,,,,,,,,,,,,,,,,,,,,,,,,,,,,628.0913258995861,1.0121204005554318,629.0994873996824,629.1831022994593,629.9827795997262,630.0827798992395,630.0827798992395,630.0827798992395,down,1,0.8429183000698686,,,,,,,,,,,,,,,,,,,,,,,,,,,,,,,,,,,,003,001,2023-11-15_16h19.43.707,ETproject_Chi_2023.1.1,2023.1.1,59.97123793831685,
33,Month,十一月 ,十二月,,Vert,early,up,image/Chi_early.png,"[0, 0.4]","[0, -0.4]",1,congruent,,,,,,,,,,,,,,,,,,,,,,,,,,,,,,0,11,11,2,,,,,,,,,,,,,,,,,,,,,,,,,,,,,,,,,,,,,,630.9627888994291,1.0142632005736232,631.9654518999159,632.0486370995641,632.8483488997445,632.9484655996785,632.9484655996785,632.9484655996785,up,1,0.793745600618422,,,,,,,,,,,,,,,,,,,,,,,,,,,,,,,,,,,,003,001,2023-11-15_16h19.43.707,ETproject_Chi_2023.1.1,2023.1.1,59.97123793831685,
68,Month,三月,二月,,Vert,early,down,image/Chi_early.png,"[0, 0.4]","[0, -0.4]",1,incongruent,,,,,,,,,,,,,,,,,,,,,,,,,,,,,,0,12,12,46,,,,,,,,,,,,,,,,,,,,,,,,,,,,,,,,,,,,,,633.7740745991468,1.0108549008145928,634.7811859995127,634.8644559998065,635.664168799296,635.7641392992809,635.7641392992809,635.7641392992809,down,1,1.0494260005652905,,,,,,,,,,,,,,,,,,,,,,,,,,,,,,,,,,,,003,001,2023-11-15_16h19.43.707,ETproject_Chi_2023.1.1,2023.1.1,59.97123793831685,
47,Month,十一月 ,七月,,Hori,late,left,image/Chi_late.png,"[-0.4, 0]","[0.4, 0]",4,incongruent,,,,,,,,,,,,,,,,,,,,,,,,,,,,,,0,13,13,37,,,,,,,,,,,,,,,,,,,,,,,,,,,,,,,,,,,,,,636.8416823996231,1.0129179004579782,637.8467393992469,637.9300713995472,638.7297136997804,638.8298146994784,638.8298146994784,638.8298146994784,left,1,0.7923153005540371,,,,,,,,,,,,,,,,,,,,,,,,,,,,,,,,,,,,003,001,2023-11-15_16h19.43.707,ETproject_Chi_2023.1.1,2023.1.1,59.97123793831685,
107,Week,星期四,星期日,,Hori,late,right,image/Chi_late.png,"[-0.4, 0]","[0.4, 0]",3,congruent,,,,,,,,,,,,,,,,,,,,,,,,,,,,,,0,14,14,34,,,,,,,,,,,,,,,,,,,,,,,,,,,,,,,,,,,,,,639.6534030996263,1.0122231002897024,640.6625836994499,640.7458289992064,641.5455239992589,641.6454228991643,641.6454228991643,641.6454228991643,right,1,1.1996946008875966,,,,,,,,,,,,,,,,,,,,,,,,,,,,,,,,,,,,003,001,2023-11-15_16h19.43.707,ETproject_Chi_2023.1.1,2023.1.1,59.97123793831685,
122,Week,星期五,星期日,,Vert,late,down,image/Chi_late.png,"[0, 0.4]","[0, -0.4]",2,congruent,,,,,,,,,,,,,,,,,,,,,,,,,,,,,,0,15,15,40,,,,,,,,,,,,,,,,,,,,,,,,,,,,,,,,,,,,,,642.8725511999801,1.009905899874866,643.8780735991895,643.9614152992144,644.7611348992214,644.8611319996417,644.8611319996417,644.8611319996417,down,1,1.1045188000425696,,,,,,,,,,,,,,,,,,,,,,,,,,,,,,,,,,,,003,001,2023-11-15_16h19.43.707,ETproject_Chi_2023.1.1,2023.1.1,59.97123793831685,
38,Month,十月 ,六月,,Hori,early,right,image/Chi_early.png,"[-0.4, 0]","[0.4, 0]",4,incongruent,,,,,,,,,,,,,,,,,,,,,,,,,,,,,,0,16,16,18,,,,,,,,,,,,,,,,,,,,,,,,,,,,,,,,,,,,,,646.0072864992544,1.0121816005557775,647.0103549994528,647.0938147995621,647.8935089996085,647.9935440998524,647.9935440998524,647.9935440998524,right,1,1.0366979008540511,,,,,,,,,,,,,,,,,,,,,,,,,,,,,,,,,,,,003,001,2023-11-15_16h19.43.707,ETproject_Chi_2023.1.1,2023.1.1,59.97123793831685,
9,Month,九月 ,十月 ,,Hori,early,left,image/Chi_early.png,"[-0.4, 0]","[0.4, 0]",1,congruent,,,,,,,,,,,,,,,,,,,,,,,,,,,,,,0,17,17,47,,,,,,,,,,,,,,,,,,,,,,,,,,,,,,,,,,,,,,649.0682945000008,1.0118402000516653,650.0762469992042,650.1593837998807,650.9590650992468,651.0590498000383,651.0590498000383,651.0590498000383,left,1,0.7861734004691243,,,,,,,,,,,,,,,,,,,,,,,,,,,,,,,,,,,,003,001,2023-11-15_16h19.43.707,ETproject_Chi_2023.1.1,2023.1.1,59.97123793831685,
105,Week,星期二,星期五,,Hori,late,right,image/Chi_late.png,"[-0.4, 0]","[0.4, 0]",3,congruent,,,,,,,,,,,,,,,,,,,,,,,,,,,,,,0,18,18,42,,,,,,,,,,,,,,,,,,,,,,,,,,,,,,,,,,,,,,651.885610899888,0.9993224004283547,652.8917686995119,652.9751017000526,653.7749087996781,653.874825399369,653.874825399369,653.874825399369,right,1,0.786807700060308,,,,,,,,,,,,,,,,,,,,,,,,,,,,,,,,,,,,003,001,2023-11-15_16h19.43.707,ETproject_Chi_2023.1.1,2023.1.1,59.97123793831685,
46,Month,三月,二月,,Hori,early,right,image/Chi_early.png,"[-0.4, 0]","[0.4, 0]",1,incongruent,,,,,,,,,,,,,,,,,,,,,,,,,,,,,,0,19,19,36,,,,,,,,,,,,,,,,,,,,,,,,,,,,,,,,,,,,,,654.7001014994457,1.013315999880433,655.7075537992641,655.7908229995519,656.590497999452,656.6905157994479,656.6905157994479,656.6905157994479,left,0,1.0436803009361029,,,,,,,,,,,,,,,,,,,,,,,,,,,,,,,,,,,,003,001,2023-11-15_16h19.43.707,ETproject_Chi_2023.1.1,2023.1.1,59.97123793831685,
43,Month,五月,三月,,Hori,early,right,image/Chi_early.png,"[-0.4, 0]","[0.4, 0]",2,incongruent,,,,,,,,,,,,,,,,,,,,,,,,,,,,,,0,20,20,16,,,,,,,,,,,,,,,,,,,,,,,,,,,,,,,,,,,,,,657.7624691994861,1.013407500460744,658.7730836998671,658.8563495995477,659.6563360998407,659.7563184993342,659.7563184993342,659.7563184993342,right,1,0.8345385007560253,,,,,,,,,,,,,,,,,,,,,,,,,,,,,,,,,,,,003,001,2023-11-15_16h19.43.707,ETproject_Chi_2023.1.1,2023.1.1,59.97123793831685,
127,Week,星期四,星期三 ,,Hori,early,right,image/Chi_early.png,"[-0.4, 0]","[0.4, 0]",1,incongruent,,,,,,,,,,,,,,,,,,,,,,,,,,,,,,0,21,21,48,,,,,,,,,,,,,,,,,,,,,,,,,,,,,,,,,,,,,,660.6299768993631,1.0120029002428055,661.6388295991346,661.7221714993939,662.5218925997615,662.6219551991671,662.6219551991671,662.6219551991671,right,1,1.2797320010140538,,,,,,,,,,,,,,,,,,,,,,,,,,,,,,,,,,,,003,001,2023-11-15_16h19.43.707,ETproject_Chi_2023.1.1,2023.1.1,59.97123793831685,
136,Week,星期六,星期五,,Hori,late,left,image/Chi_late.png,"[-0.4, 0]","[0.4, 0]",1,incongruent,,,,,,,,,,,,,,,,,,,,,,,,,,,,,,0,22,22,13,,,,,,,,,,,,,,,,,,,,,,,,,,,,,,,,,,,,,,663.934036899358,1.012151999399066,664.9379282994196,665.0211018994451,665.8207789994776,665.9210037998855,665.9210037998855,665.9210037998855,right,0,1.981045400723815,,,,,,,,,,,,,,,,,,,,,,,,,,,,,,,,,,,,003,001,2023-11-15_16h19.43.707,ETproject_Chi_2023.1.1,2023.1.1,59.97123793831685,
32,Month,十月 ,十一月 ,,Vert,early,up,image/Chi_early.png,"[0, 0.4]","[0, -0.4]",1,congruent,,,,,,,,,,,,,,,,,,,,,,,,,,,,,,0,23,23,44,,,,,,,,,,,,,,,,,,,,,,,,,,,,,,,,,,,,,,667.9325761999935,1.0115996999666095,668.9365155994892,669.0198007998988,669.8195396997035,669.9194924999028,669.9194924999028,669.9194924999028,up,1,1.2387065002694726,,,,,,,,,,,,,,,,,,,,,,,,,,,,,,,,,,,,003,001,2023-11-15_16h19.43.707,ETproject_Chi_2023.1.1,2023.1.1,59.97123793831685,
122,Week,星期五,星期六,,Vert,late,down,image/Chi_late.png,"[0, 0.4]","[0, -0.4]",1,congruent,,,,,,,,,,,,,,,,,,,,,,,,,,,,,,0,24,24,38,,,,,,,,,,,,,,,,,,,,,,,,,,,,,,,,,,,,,,671.2001320999116,1.0120023991912603,672.2021360993385,672.2854526992887,673.0852089999244,673.1851795995608,673.1851795995608,673.1851795995608,down,1,1.1558895008638501,,,,,,,,,,,,,,,,,,,,,,,,,,,,,,,,,,,,003,001,2023-11-15_16h19.43.707,ETproject_Chi_2023.1.1,2023.1.1,59.97123793831685,
79,Month,十一月 ,九月 ,,Vert,late,up,image/Chi_late.png,"[0, 0.4]","[0, -0.4]",2,incongruent,,,,,,,,,,,,,,,,,,,,,,,,,,,,,,0,25,25,0,,,,,,,,,,,,,,,,,,,,,,,,,,,,,,,,,,,,,,674.3758455999196,1.0120708998292685,675.3844259995967,675.467650199309,676.2673720996827,676.367440899834,676.367440899834,676.367440899834,up,1,1.0386765012517571,,,,,,,,,,,,,,,,,,,,,,,,,,,,,,,,,,,,003,001,2023-11-15_16h19.43.707,ETproject_Chi_2023.1.1,2023.1.1,59.97123793831685,
64,Month,四月,一月,,Vert,late,up,image/Chi_late.png,"[0, 0.4]","[0, -0.4]",3,incongruent,,,,,,,,,,,,,,,,,,,,,,,,,,,,,,0,26,26,24,,,,,,,,,,,,,,,,,,,,,,,,,,,,,,,,,,,,,,677.4381487993523,1.015600100159645,678.4500345997512,678.5332647999749,679.3330659000203,679.4332624999806,679.4332624999806,679.4332624999806,up,1,0.9014572007581592,,,,,,,,,,,,,,,,,,,,,,,,,,,,,,,,,,,,003,001,2023-11-15_16h19.43.707,ETproject_Chi_2023.1.1,2023.1.1,59.97123793831685,
30,Month,三月,六月,,Vert,late,down,image/Chi_late.png,"[0, 0.4]","[0, -0.4]",3,congruent,,,,,,,,,,,,,,,,,,,,,,,,,,,,,,0,27,27,14,,,,,,,,,,,,,,,,,,,,,,,,,,,,,,,,,,,,,,680.3696545995772,0.9994298992678523,681.3824408994988,681.4656183999032,682.2654043994844,682.3653321992606,682.3653321992606,682.3653321992606,down,1,0.7277001002803445,,,,,,,,,,,,,,,,,,,,,,,,,,,,,,,,,,,,003,001,2023-11-15_16h19.43.707,ETproject_Chi_2023.1.1,2023.1.1,59.97123793831685,
106,Week,星期三 ,星期五,,Hori,late,right,image/Chi_late.png,"[-0.4, 0]","[0.4, 0]",2,congruent,,,,,,,,,,,,,,,,,,,,,,,,,,,,,,0,28,28,33,,,,,,,,,,,,,,,,,,,,,,,,,,,,,,,,,,,,,,683.1232011998072,1.013068299740553,684.1314202994108,684.2147443993017,685.0145090995356,685.114656499587,685.114656499587,685.114656499587,right,1,0.7304940009489655,,,,,,,,,,,,,,,,,,,,,,,,,,,,,,,,,,,,003,001,2023-11-15_16h19.43.707,ETproject_Chi_2023.1.1,2023.1.1,59.97123793831685,
107,Week,星期四,星期五,,Hori,late,right,image/Chi_late.png,"[-0.4, 0]","[0.4, 0]",1,congruent,,,,,,,,,,,,,,,,,,,,,,,,,,,,,,0,29,29,19,,,,,,,,,,,,,,,,,,,,,,,,,,,,,,,,,,,,,,686.8679875992239,1.0146427005529404,687.8801941992715,687.9636175995693,688.7632504999638,688.8634772999212,688.8634772999212,688.8634772999212,right,1,0.6789590008556843,,,,,,,,,,,,,,,,,,,,,,,,,,,,,,,,,,,,003,001,2023-11-15_16h19.43.707,ETproject_Chi_2023.1.1,2023.1.1,59.97123793831685,
57,Month,五月,一月,,Vert,late,up,image/Chi_late.png,"[0, 0.4]","[0, -0.4]",4,incongruent,,,,,,,,,,,,,,,,,,,,,,,,,,,,,,0,30,30,25,,,,,,,,,,,,,,,,,,,,,,,,,,,,,,,,,,,,,,689.571278099902,1.0126777002587914,690.5793857993558,690.6626405995339,691.4623176995665,691.5623667994514,691.5623667994514,691.5623667994514,up,1,1.0509204007685184,,,,,,,,,,,,,,,,,,,,,,,,,,,,,,,,,,,,003,001,2023-11-15_16h19.43.707,ETproject_Chi_2023.1.1,2023.1.1,59.97123793831685,
8,Month,八月,十二月,,Hori,early,left,image/Chi_early.png,"[-0.4, 0]","[0.4, 0]",4,congruent,,,,,,,,,,,,,,,,,,,,,,,,,,,,,,0,31,31,7,,,,,,,,,,,,,,,,,,,,,,,,,,,,,,,,,,,,,,692.6586894998327,1.013243299908936,693.6616447996348,693.7449212996289,694.5448611993343,694.6447970997542,694.6447970997542,694.6447970997542,left,1,0.6729550007730722,,,,,,,,,,,,,,,,,,,,,,,,,,,,,,,,,,,,003,001,2023-11-15_16h19.43.707,ETproject_Chi_2023.1.1,2023.1.1,59.97123793831685,
47,Month,五月,二月,,Hori,late,left,image/Chi_late.png,"[-0.4, 0]","[0.4, 0]",3,incongruent,,,,,,,,,,,,,,,,,,,,,,,,,,,,,,0,32,32,10,,,,,,,,,,,,,,,,,,,,,,,,,,,,,,,,,,,,,,695.3569142995402,1.0110753001645207,696.3607313996181,696.4440961992368,697.2439070995897,697.3437989000231,697.3437989000231,697.3437989000231,left,1,1.0296941008418798,,,,,,,,,,,,,,,,,,,,,,,,,,,,,,,,,,,,003,001,2023-11-15_16h19.43.707,ETproject_Chi_2023.1.1,2023.1.1,59.97123793831685,
12,Month,二月,四月,,Hori,late,right,image/Chi_late.png,"[-0.4, 0]","[0.4, 0]",2,congruent,,,,,,,,,,,,,,,,,,,,,,,,,,,,,,0,33,33,21,,,,,,,,,,,,,,,,,,,,,,,,,,,,,,,,,,,,,,699.3996653994545,0.9990478996187449,700.4093686994165,700.4928909000009,701.2925102999434,701.3925893995911,701.3925893995911,701.3925893995911,right,1,0.6447032000869513,,,,,,,,,,,,,,,,,,,,,,,,,,,,,,,,,,,,003,001,2023-11-15_16h19.43.707,ETproject_Chi_2023.1.1,2023.1.1,59.97123793831685,
42,Month,九月 ,六月,,Hori,early,right,image/Chi_early.png,"[-0.4, 0]","[0.4, 0]",3,incongruent,,,,,,,,,,,,,,,,,,,,,,,,,,,,,,0,34,34,4,,,,,,,,,,,,,,,,,,,,,,,,,,,,,,,,,,,,,,702.0702267996967,1.0110850995406508,703.0751231992617,703.1583492998034,703.9581732992083,704.058194199577,704.058194199577,704.058194199577,right,1,0.8753660004585981,,,,,,,,,,,,,,,,,,,,,,,,,,,,,,,,,,,,003,001,2023-11-15_16h19.43.707,ETproject_Chi_2023.1.1,2023.1.1,59.97123793831685,
32,Month,五月,八月,,Vert,late,down,image/Chi_late.png,"[0, 0.4]","[0, -0.4]",3,congruent,,,,,,,,,,,,,,,,,,,,,,,,,,,,,,0,35,35,9,,,,,,,,,,,,,,,,,,,,,,,,,,,,,,,,,,,,,,704.9698597993702,1.0103377001360059,705.9742460995913,706.0575001994148,706.8572520995513,706.9573198994622,706.9573198994622,706.9573198994622,up,0,0.7040861006826162,,,,,,,,,,,,,,,,,,,,,,,,,,,,,,,,,,,,003,001,2023-11-15_16h19.43.707,ETproject_Chi_2023.1.1,2023.1.1,59.97123793831685,
31,Month,七月,十一月 ,,Vert,late,down,image/Chi_late.png,"[0, 0.4]","[0, -0.4]",4,congruent,,,,,,,,,,,,,,,,,,,,,,,,,,,,,,0,36,36,6,,,,,,,,,,,,,,,,,,,,,,,,,,,,,,,,,,,,,,708.6962457997724,1.0148236993700266,709.7064130995423,709.7896840991452,710.5893351994455,710.68941659946,710.68941659946,710.68941659946,down,1,0.9322086004540324,,,,,,,,,,,,,,,,,,,,,,,,,,,,,,,,,,,,003,001,2023-11-15_16h19.43.707,ETproject_Chi_2023.1.1,2023.1.1,59.97123793831685,
128,Week,星期日,星期四,,Hori,early,right,image/Chi_early.png,"[-0.4, 0]","[0.4, 0]",3,incongruent,,,,,,,,,,,,,,,,,,,,,,,,,,,,,,0,37,37,35,,,,,,,,,,,,,,,,,,,,,,,,,,,,,,,,,,,,,,711.652190499939,1.0107284002006054,712.6554685998708,712.7386815994978,713.5385523997247,713.6385932993144,713.6385932993144,713.6385932993144,right,1,0.6873604003340006,,,,,,,,,,,,,,,,,,,,,,,,,,,,,,,,,,,,003,001,2023-11-15_16h19.43.707,ETproject_Chi_2023.1.1,2023.1.1,59.97123793831685,
47,Month,九月 ,七月,,Hori,early,right,image/Chi_early.png,"[-0.4, 0]","[0.4, 0]",2,incongruent,,,,,,,,,,,,,,,,,,,,,,,,,,,,,,0,38,38,23,,,,,,,,,,,,,,,,,,,,,,,,,,,,,,,,,,,,,,714.3657221999019,1.0108973002061248,715.3711154991761,715.4544920995831,716.2542363991961,716.3543811999261,716.3543811999261,716.3543811999261,right,1,1.0842737006023526,,,,,,,,,,,,,,,,,,,,,,,,,,,,,,,,,,,,003,001,2023-11-15_16h19.43.707,ETproject_Chi_2023.1.1,2023.1.1,59.97123793831685,
143,Week,星期日,星期五,,Vert,early,down,image/Chi_early.png,"[0, 0.4]","[0, -0.4]",2,incongruent,,,,,,,,,,,,,,,,,,,,,,,,,,,,,,0,39,39,22,,,,,,,,,,,,,,,,,,,,,,,,,,,,,,,,,,,,,,717.4765465995297,1.013057499192655,718.4868606999516,718.5700713992119,719.3697846997529,719.4698573993519,719.4698573993519,719.4698573993519,down,1,1.3848056010901928,,,,,,,,,,,,,,,,,,,,,,,,,,,,,,,,,,,,003,001,2023-11-15_16h19.43.707,ETproject_Chi_2023.1.1,2023.1.1,59.97123793831685,
52,Month,十月 ,七月,,Hori,late,left,image/Chi_late.png,"[-0.4, 0]","[0.4, 0]",3,incongruent,,,,,,,,,,,,,,,,,,,,,,,,,,,,,,0,40,40,41,,,,,,,,,,,,,,,,,,,,,,,,,,,,,,,,,,,,,,720.898575199768,1.0115191992372274,721.9023257996887,721.985670699738,722.7854166999459,722.8855516994372,722.8855516994372,722.8855516994372,left,1,1.2327935006469488,,,,,,,,,,,,,,,,,,,,,,,,,,,,,,,,,,,,003,001,2023-11-15_16h19.43.707,ETproject_Chi_2023.1.1,2023.1.1,59.97123793831685,
52,Month,八月,四月,,Vert,early,down,image/Chi_early.png,"[0, 0.4]","[0, -0.4]",4,incongruent,,,,,,,,,,,,,,,,,,,,,,,,,,,,,,0,41,41,31,,,,,,,,,,,,,,,,,,,,,,,,,,,,,,,,,,,,,,724.1483522998169,1.0100197000429034,725.1512225000188,725.2346733994782,726.034444399178,726.1343059996143,726.1343059996143,726.1343059996143,down,1,1.2396464003250003,,,,,,,,,,,,,,,,,,,,,,,,,,,,,,,,,,,,003,001,2023-11-15_16h19.43.707,ETproject_Chi_2023.1.1,2023.1.1,59.97123793831685,
3,Month,三月,五月,,Hori,early,left,image/Chi_early.png,"[-0.4, 0]","[0.4, 0]",2,congruent,,,,,,,,,,,,,,,,,,,,,,,,,,,,,,0,42,42,29,,,,,,,,,,,,,,,,,,,,,,,,,,,,,,,,,,,,,,727.407591599971,1.0120656993240118,728.4169376995414,728.500103299506,729.299815800041,729.399929699488,729.399929699488,729.399929699488,left,1,0.6614986006170511,,,,,,,,,,,,,,,,,,,,,,,,,,,,,,,,,,,,003,001,2023-11-15_16h19.43.707,ETproject_Chi_2023.1.1,2023.1.1,59.97123793831685,
76,Month,十一月 ,十月 ,,Vert,early,down,image/Chi_early.png,"[0, 0.4]","[0, -0.4]",1,incongruent,,,,,,,,,,,,,,,,,,,,,,,,,,,,,,0,43,43,1,,,,,,,,,,,,,,,,,,,,,,,,,,,,,,,,,,,,,,730.0924512995407,1.0116942003369331,731.0993929998949,731.1827146997675,731.9824324995279,732.0824718000367,732.0824718000367,732.0824718000367,down,1,0.772252400405705,,,,,,,,,,,,,,,,,,,,,,,,,,,,,,,,,,,,003,001,2023-11-15_16h19.43.707,ETproject_Chi_2023.1.1,2023.1.1,59.97123793831685,
11,Month,一月,三月,,Hori,late,right,image/Chi_late.png,"[-0.4, 0]","[0.4, 0]",2,congruent,,,,,,,,,,,,,,,,,,,,,,,,,,,,,,0,44,44,5,,,,,,,,,,,,,,,,,,,,,,,,,,,,,,,,,,,,,,732.8913569999859,1.0156308002769947,733.8983088992536,733.9816703991964,734.7813599994406,734.8814835995436,734.8814835995436,734.8814835995436,right,1,0.6679591005668044,,,,,,,,,,,,,,,,,,,,,,,,,,,,,,,,,,,,003,001,2023-11-15_16h19.43.707,ETproject_Chi_2023.1.1,2023.1.1,59.97123793831685,
43,Month,七月,三月,,Hori,late,left,image/Chi_late.png,"[-0.4, 0]","[0.4, 0]",4,incongruent,,,,,,,,,,,,,,,,,,,,,,,,,,,,,,0,45,45,39,,,,,,,,,,,,,,,,,,,,,,,,,,,,,,,,,,,,,,735.5853221993893,1.0137419002130628,736.5975956991315,736.6808627992868,737.4805076997727,737.5805372996256,737.5805372996256,737.5805372996256,left,1,0.8174487007781863,,,,,,,,,,,,,,,,,,,,,,,,,,,,,,,,,,,,003,001,2023-11-15_16h19.43.707,ETproject_Chi_2023.1.1,2023.1.1,59.97123793831685,
50,Month,六月,二月,,Vert,early,down,image/Chi_early.png,"[0, 0.4]","[0, -0.4]",4,incongruent,,,,,,,,,,,,,,,,,,,,,,,,,,,,,,0,46,46,30,,,,,,,,,,,,,,,,,,,,,,,,,,,,,,,,,,,,,,738.445510099642,1.0101717999204993,739.4464793996885,739.5299007995054,740.329508099705,740.4295330997556,740.4295330997556,740.4295330997556,down,1,1.7201876007020473,,,,,,,,,,,,,,,,,,,,,,,,,,,,,,,,,,,,003,001,2023-11-15_16h19.43.707,ETproject_Chi_2023.1.1,2023.1.1,59.97123793831685,
61,Month,七月,六月,,Hori,late,left,image/Chi_late.png,"[-0.4, 0]","[0.4, 0]",1,incongruent,,,,,,,,,,,,,,,,,,,,,,,,,,,,,,0,47,47,17,,,,,,,,,,,,,,,,,,,,,,,,,,,,,,,,,,,,,,742.18585209921,1.0154502000659704,743.1952607994899,743.2787186997011,744.0784930000082,744.1783586991951,744.1783586991951,744.1783586991951,left,1,1.2432541009038687,,,,,,,,,,,,,,,,,,,,,,,,,,,,,,,,,,,,003,001,2023-11-15_16h19.43.707,ETproject_Chi_2023.1.1,2023.1.1,59.97123793831685,
63,Month,十一月 ,七月,,Vert,late,up,image/Chi_late.png,"[0, 0.4]","[0, -0.4]",4,incongruent,,,,,,,,,,,,,,,,,,,,,,,,,,,,,,0,48,48,3,,,,,,,,,,,,,,,,,,,,,,,,,,,,,,,,,,,,,,745.4507071999833,0.9990028999745846,746.4609361998737,746.5443730000407,747.343983899802,747.4439917998388,747.4439917998388,747.4439917998388,up,1,1.098767600953579,,,,,,,,,,,,,,,,,,,,,,,,,,,,,,,,,,,,003,001,2023-11-15_16h19.43.707,ETproject_Chi_2023.1.1,2023.1.1,59.97123793831685,
50,Month,七月,六月,,Hori,early,right,image/Chi_early.png,"[-0.4, 0]","[0.4, 0]",1,incongruent,,,,,,,,,,,,,,,,,,,,,,,,,,,,,,0,49,49,28,,,,,,,,,,,,,,,,,,,,,,,,,,,,,,,,,,,,,,748.5679368991405,1.0153986001387239,749.5765483994037,749.6598751991987,750.4595997994766,750.5595458997414,750.5595458997414,750.5595458997414,right,1,0.6378992013633251,,,,,,,,,,,,,,,,,,,,,,,,,,,,,,,,,,,,003,001,2023-11-15_16h19.43.707,ETproject_Chi_2023.1.1,2023.1.1,59.97123793831685,
,,,,,,,,,,,,,,,,,,,,,,,,,,,,,,,,,,,,,,,,,,,,,,,,,,,,,,,,,,,,,,,,,,,,,,,,,,,,,,,,,,,,,,,,,,,,,,,,,,,,,,,,,,,,,,,,,,,,,,,,751.2262693997473,751.2262693997473,space,2.4988809004426003,,,,,,003,001,2023-11-15_16h19.43.707,ETproject_Chi_2023.1.1,2023.1.1,59.97123793831685,
,,,,,,,,,,,,,Spring 5.jpg,这是冬天吗？,否,Right,Break_material/Image/Spring 5.jpg,,,,,,,,,,,,,,,,,,,,,,,,,,,,,0,0,0,4,,,,,,,,,,,,,,,,,,,,,,,,,,,,,,,,,,,,,,,,,,,,,,,,,754.222967799753,757.728650899604,758.2236626995727,759.7398291993886,759.7398291993886,759.7398291993886,759.7398291993886,right,0,1.2011325005441904,,,,,,,,,,,,,,,,,,,,,,003,001,2023-11-15_16h19.43.707,ETproject_Chi_2023.1.1,2023.1.1,59.97123793831685,
,,,,,,,,,,,,,Spring 4.jpg,这是秋天吗？,否,Right,Break_material/Image/Spring 4.jpg,,,,,,,,,,,,,,,,,,,,,,,,,,,,,0,1,1,3,,,,,,,,,,,,,,,,,,,,,,,,,,,,,,,,,,,,,,,,,,,,,,,,,761.3505248995498,764.9590798998252,765.3548416998237,766.9710628995672,766.9710628995672,766.9710628995672,766.9710628995672,right,0,1.2427506009116769,,,,,,,,,,,,,,,,,,,,,,003,001,2023-11-15_16h19.43.707,ETproject_Chi_2023.1.1,2023.1.1,59.97123793831685,
,,,,,,,,,,,,,Spring 2.jpg,这是冬天吗？,否,Right,Break_material/Image/Spring 2.jpg,,,,,,,,,,,,,,,,,,,,,,,,,,,,,0,2,2,1,,,,,,,,,,,,,,,,,,,,,,,,,,,,,,,,,,,,,,,,,,,,,,,,,768.3122768998146,772.2234092997387,772.3191727995872,774.2353842994198,774.2353842994198,774.2353842994198,774.2353842994198,right,0,0.5072322003543377,,,,,,,,,,,,,,,,,,,,,,003,001,2023-11-15_16h19.43.707,ETproject_Chi_2023.1.1,2023.1.1,59.97123793831685,
,,,,,,,,,,,,,Spring 3.jpg,这是夏天吗？,否,Right,Break_material/Image/Spring 3.jpg,,,,,,,,,,,,,,,,,,,,,,,,,,,,,0,3,3,2,,,,,,,,,,,,,,,,,,,,,,,,,,,,,,,,,,,,,,,,,,,,,,,,,774.8309193998575,778.754042699933,778.8337832996622,780.7664836999029,780.7664836999029,780.7664836999029,780.7664836999029,left,0,0.3681116010993719,,,,,,,,,,,,,,,,,,,,,,003,001,2023-11-15_16h19.43.707,ETproject_Chi_2023.1.1,2023.1.1,59.97123793831685,
,,,,,,,,,,,,,Spring 1.jpg,这是春天吗？,是,Left,Break_material/Image/Spring 1.jpg,,,,,,,,,,,,,,,,,,,,,,,,,,,,,0,4,4,0,,,,,,,,,,,,,,,,,,,,,,,,,,,,,,,,,,,,,,,,,,,,,,,,,781.2175928000361,785.1518015991896,785.2149519994855,787.1645301999524,787.1645301999524,787.1645301999524,787.1645301999524,left,0,0.5369921009987593,,,,,,,,,,,,,,,,,,,,,,003,001,2023-11-15_16h19.43.707,ETproject_Chi_2023.1.1,2023.1.1,59.97123793831685,
,,,,,,,,,,,,,,,,,,,,,,,,,,,,,,,,,,,,,,,,,,,,,,,,,,,,,,,,,,,,,,,,,,,,,,,,,,,,,,,,,,,,,,,,,,,,,,,,,,,,,,,,,,,,,,,,,,,,,,,,,,,,787.731046599336,787.731046599336,space,1.7546160006895661,,003,001,2023-11-15_16h19.43.707,ETproject_Chi_2023.1.1,2023.1.1,59.97123793831685,
2,Month,二月,四月,,Hori,early,left,image/Chi_early.png,"[-0.4, 0]","[0.4, 0]",2,congruent,,,,,,,,,,,,,,,,,,,,,,,,,,,,,,,,,,,,,,0,0,0,5,,,,,,,,,,,,,,,,,,,,,,,,,,,,,,789.5278178993613,0.9993690000846982,790.529817099683,790.6132535999641,791.4131271997467,791.5131223993376,791.5131223993376,791.5131223993376,left,1,0.7091725012287498,,,,,,,,,,,,,,,,,,,,,,,,,,,,,,,,,,,,003,001,2023-11-15_16h19.43.707,ETproject_Chi_2023.1.1,2023.1.1,59.97123793831685,
112,Week,星期二,星期四,,Vert,early,up,image/Chi_early.png,"[0, 0.4]","[0, -0.4]",2,congruent,,,,,,,,,,,,,,,,,,,,,,,,,,,,,,,,,,,,,,0,1,1,41,,,,,,,,,,,,,,,,,,,,,,,,,,,,,,792.2555344998837,1.0110232001170516,793.2623290996999,793.3456974998116,794.1455170996487,794.2457004999742,794.2457004999742,794.2457004999742,up,1,0.7116855010390282,,,,,,,,,,,,,,,,,,,,,,,,,,,,,,,,,,,,003,001,2023-11-15_16h19.43.707,ETproject_Chi_2023.1.1,2023.1.1,59.97123793831685,
44,Month,八月,四月,,Hori,late,left,image/Chi_late.png,"[-0.4, 0]","[0.4, 0]",4,incongruent,,,,,,,,,,,,,,,,,,,,,,,,,,,,,,,,,,,,,,0,2,2,40,,,,,,,,,,,,,,,,,,,,,,,,,,,,,,795.9898518994451,1.0143577000126243,796.9945518998429,797.0777650000528,797.8775188997388,797.9776167999953,797.9776167999953,797.9776167999953,left,1,0.6359769003465772,,,,,,,,,,,,,,,,,,,,,,,,,,,,,,,,,,,,003,001,2023-11-15_16h19.43.707,ETproject_Chi_2023.1.1,2023.1.1,59.97123793831685,
28,Month,一月,四月,,Vert,late,down,image/Chi_late.png,"[0, 0.4]","[0, -0.4]",3,congruent,,,,,,,,,,,,,,,,,,,,,,,,,,,,,,,,,,,,,,0,3,3,9,,,,,,,,,,,,,,,,,,,,,,,,,,,,,,798.6536226999015,1.011914700269699,799.6601761998609,799.7435815995559,800.5432797996327,800.6433825995773,800.6433825995773,800.6433825995773,down,1,1.257608100771904,,,,,,,,,,,,,,,,,,,,,,,,,,,,,,,,,,,,003,001,2023-11-15_16h19.43.707,ETproject_Chi_2023.1.1,2023.1.1,59.97123793831685,
27,Month,五月,六月,,Vert,early,up,image/Chi_early.png,"[0, 0.4]","[0, -0.4]",1,congruent,,,,,,,,,,,,,,,,,,,,,,,,,,,,,,,,,,,,,,0,4,4,48,,,,,,,,,,,,,,,,,,,,,,,,,,,,,,801.9366442998871,1.0124037005007267,802.94258519914,803.0257403999567,803.8257265994325,803.9257258996367,803.9257258996367,803.9257258996367,up,1,1.5925242006778717,,,,,,,,,,,,,,,,,,,,,,,,,,,,,,,,,,,,003,001,2023-11-15_16h19.43.707,ETproject_Chi_2023.1.1,2023.1.1,59.97123793831685,
73,Month,八月,七月,,Vert,early,down,image/Chi_early.png,"[0, 0.4]","[0, -0.4]",1,incongruent,,,,,,,,,,,,,,,,,,,,,,,,,,,,,,,,,,,,,,0,5,5,29,,,,,,,,,,,,,,,,,,,,,,,,,,,,,,805.5465325992554,1.014779000543058,806.5579735999927,806.6413455996662,807.441070699133,807.5410970998928,807.5410970998928,807.5410970998928,down,1,1.127852400764823,,,,,,,,,,,,,,,,,,,,,,,,,,,,,,,,,,,,003,001,2023-11-15_16h19.43.707,ETproject_Chi_2023.1.1,2023.1.1,59.97123793831685,
79,Month,三月,二月,,Vert,late,up,image/Chi_late.png,"[0, 0.4]","[0, -0.4]",1,incongruent,,,,,,,,,,,,,,,,,,,,,,,,,,,,,,,,,,,,,,0,6,6,8,,,,,,,,,,,,,,,,,,,,,,,,,,,,,,808.702824799344,1.013972400687635,809.7069737995043,809.7903150999919,810.589917499572,810.6899985000491,810.6899985000491,810.6899985000491,up,1,1.3562822006642818,,,,,,,,,,,,,,,,,,,,,,,,,,,,,,,,,,,,003,001,2023-11-15_16h19.43.707,ETproject_Chi_2023.1.1,2023.1.1,59.97123793831685,
142,Week,星期六,星期四,,Vert,early,down,image/Chi_early.png,"[0, 0.4]","[0, -0.4]",2,incongruent,,,,,,,,,,,,,,,,,,,,,,,,,,,,,,,,,,,,,,0,7,7,15,,,,,,,,,,,,,,,,,,,,,,,,,,,,,,812.0865896996111,1.009960100054741,813.0891006998718,813.1726476997137,813.97218469996,814.072311299853,814.072311299853,814.072311299853,down,1,1.3658523010089993,,,,,,,,,,,,,,,,,,,,,,,,,,,,,,,,,,,,003,001,2023-11-15_16h19.43.707,ETproject_Chi_2023.1.1,2023.1.1,59.97123793831685,
15,Month,六月,九月 ,,Hori,late,right,image/Chi_late.png,"[-0.4, 0]","[0.4, 0]",3,congruent,,,,,,,,,,,,,,,,,,,,,,,,,,,,,,,,,,,,,,0,8,8,42,,,,,,,,,,,,,,,,,,,,,,,,,,,,,,815.4667128995061,1.01542910002172,816.471384499222,816.5549228992313,817.354514000006,817.4545436995104,817.4545436995104,817.4545436995104,right,1,1.367043200880289,,,,,,,,,,,,,,,,,,,,,,,,,,,,,,,,,,,,003,001,2023-11-15_16h19.43.707,ETproject_Chi_2023.1.1,2023.1.1,59.97123793831685,
114,Week,星期四,星期六,,Vert,early,up,image/Chi_early.png,"[0, 0.4]","[0, -0.4]",2,congruent,,,,,,,,,,,,,,,,,,,,,,,,,,,,,,,,,,,,,,0,9,9,1,,,,,,,,,,,,,,,,,,,,,,,,,,,,,,818.8661003997549,1.0104348994791508,819.8702671993524,819.9536007000133,820.7534356992692,820.8532085996121,820.8532085996121,820.8532085996121,up,1,1.489160600118339,,,,,,,,,,,,,,,,,,,,,,,,,,,,,,,,,,,,003,001,2023-11-15_16h19.43.707,ETproject_Chi_2023.1.1,2023.1.1,59.97123793831685,
120,Week,星期三 ,星期四,,Vert,late,down,image/Chi_late.png,"[0, 0.4]","[0, -0.4]",1,congruent,,,,,,,,,,,,,,,,,,,,,,,,,,,,,,,,,,,,,,0,10,10,46,,,,,,,,,,,,,,,,,,,,,,,,,,,,,,823.3771674996242,1.0153264002874494,824.3852010993287,824.4684053994715,825.2684796992689,825.3683630991727,825.3683630991727,825.3683630991727,down,1,1.1016117008402944,,,,,,,,,,,,,,,,,,,,,,,,,,,,,,,,,,,,003,001,2023-11-15_16h19.43.707,ETproject_Chi_2023.1.1,2023.1.1,59.97123793831685,
27,Month,七月,九月 ,,Vert,early,up,image/Chi_early.png,"[0, 0.4]","[0, -0.4]",2,congruent,,,,,,,,,,,,,,,,,,,,,,,,,,,,,,,,,,,,,,0,11,11,17,,,,,,,,,,,,,,,,,,,,,,,,,,,,,,826.5130444997922,1.011501600034535,827.5176887996495,827.6011633994058,828.4006324997172,828.500694300048,828.500694300048,828.500694300048,up,1,1.5377827007323503,,,,,,,,,,,,,,,,,,,,,,,,,,,,,,,,,,,,003,001,2023-11-15_16h19.43.707,ETproject_Chi_2023.1.1,2023.1.1,59.97123793831685,
60,Month,六月,五月,,Hori,late,left,image/Chi_late.png,"[-0.4, 0]","[0.4, 0]",1,incongruent,,,,,,,,,,,,,,,,,,,,,,,,,,,,,,,,,,,,,,0,12,12,43,,,,,,,,,,,,,,,,,,,,,,,,,,,,,,830.083330899477,1.0098648993298411,831.0832979995757,831.1665369998664,831.9662667997181,832.066396699287,832.066396699287,832.066396699287,left,1,1.1147259008139372,,,,,,,,,,,,,,,,,,,,,,,,,,,,,,,,,,,,003,001,2023-11-15_16h19.43.707,ETproject_Chi_2023.1.1,2023.1.1,59.97123793831685,
3,Month,三月,六月,,Hori,early,left,image/Chi_early.png,"[-0.4, 0]","[0.4, 0]",3,congruent,,,,,,,,,,,,,,,,,,,,,,,,,,,,,,,,,,,,,,0,13,13,0,,,,,,,,,,,,,,,,,,,,,,,,,,,,,,833.2120576994494,1.0113645000383258,834.2156769996509,834.2988738995045,835.0986306993291,835.1984276995063,835.1984276995063,835.1984276995063,left,1,1.2554500009864569,,,,,,,,,,,,,,,,,,,,,,,,,,,,,,,,,,,,003,001,2023-11-15_16h19.43.707,ETproject_Chi_2023.1.1,2023.1.1,59.97123793831685,
35,Month,五月,七月,,Vert,late,down,image/Chi_late.png,"[0, 0.4]","[0, -0.4]",2,congruent,,,,,,,,,,,,,,,,,,,,,,,,,,,,,,,,,,,,,,0,14,14,4,,,,,,,,,,,,,,,,,,,,,,,,,,,,,,836.4994287993759,1.010138699784875,837.4978249995038,837.5811985991895,838.3808505991474,838.4807026991621,838.4807026991621,838.4807026991621,down,1,0.7804847005754709,,,,,,,,,,,,,,,,,,,,,,,,,,,,,,,,,,,,003,001,2023-11-15_16h19.43.707,ETproject_Chi_2023.1.1,2023.1.1,59.97123793831685,
22,Month,二月,四月,,Vert,early,up,image/Chi_early.png,"[0, 0.4]","[0, -0.4]",2,congruent,,,,,,,,,,,,,,,,,,,,,,,,,,,,,,,,,,,,,,0,15,15,39,,,,,,,,,,,,,,,,,,,,,,,,,,,,,,839.2940467996523,1.0096369003877044,840.2968933992088,840.3803696995601,841.17988699954,841.2797930995002,841.2797930995002,841.2797930995002,up,1,0.9668368007987738,,,,,,,,,,,,,,,,,,,,,,,,,,,,,,,,,,,,003,001,2023-11-15_16h19.43.707,ETproject_Chi_2023.1.1,2023.1.1,59.97123793831685,
152,Week,星期一,星期二,,Vert,late,up,image/Chi_late.png,"[0, 0.4]","[0, -0.4]",1,incongruent,,,,,,,,,,,,,,,,,,,,,,,,,,,,,,,,,,,,,,0,16,16,45,,,,,,,,,,,,,,,,,,,,,,,,,,,,,,842.2701527997851,1.0150936003774405,843.2790957000107,843.3626276999712,844.1622236995026,844.2623657993972,844.2623657993972,844.2623657993972,down,0,0.9274345012381673,,,,,,,,,,,,,,,,,,,,,,,,,,,,,,,,,,,,003,001,2023-11-15_16h19.43.707,ETproject_Chi_2023.1.1,2023.1.1,59.97123793831685,
121,Week,星期四,星期日,,Vert,late,down,image/Chi_late.png,"[0, 0.4]","[0, -0.4]",3,congruent,,,,,,,,,,,,,,,,,,,,,,,,,,,,,,,,,,,,,,0,17,17,22,,,,,,,,,,,,,,,,,,,,,,,,,,,,,,845.2160409996286,0.9991854000836611,846.2282307995483,846.311671199277,847.111286399886,847.2113212998956,847.2113212998956,847.2113212998956,down,1,1.123229200951755,,,,,,,,,,,,,,,,,,,,,,,,,,,,,,,,,,,,003,001,2023-11-15_16h19.43.707,ETproject_Chi_2023.1.1,2023.1.1,59.97123793831685,
149,Week,星期六,星期四,,Vert,late,up,image/Chi_late.png,"[0, 0.4]","[0, -0.4]",2,incongruent,,,,,,,,,,,,,,,,,,,,,,,,,,,,,,,,,,,,,,0,18,18,10,,,,,,,,,,,,,,,,,,,,,,,,,,,,,,848.3659647991881,0.9991987003013492,849.3772684996948,849.4604158997536,850.2603266993538,850.3600788991898,850.3600788991898,850.3600788991898,up,1,0.9495643004775047,,,,,,,,,,,,,,,,,,,,,,,,,,,,,,,,,,,,003,001,2023-11-15_16h19.43.707,ETproject_Chi_2023.1.1,2023.1.1,59.97123793831685,
33,Month,六月,九月 ,,Vert,late,down,image/Chi_late.png,"[0, 0.4]","[0, -0.4]",3,congruent,,,,,,,,,,,,,,,,,,,,,,,,,,,,,,,,,,,,,,0,19,19,44,,,,,,,,,,,,,,,,,,,,,,,,,,,,,,851.3321437994018,1.0140996994450688,852.3430381994694,852.4262464996427,853.2259952994063,853.3260769993067,853.3260769993067,853.3260769993067,down,1,0.8555163005366921,,,,,,,,,,,,,,,,,,,,,,,,,,,,,,,,,,,,003,001,2023-11-15_16h19.43.707,ETproject_Chi_2023.1.1,2023.1.1,59.97123793831685,
1,Month,一月,五月,,Hori,early,left,image/Chi_early.png,"[-0.4, 0]","[0.4, 0]",4,congruent,,,,,,,,,,,,,,,,,,,,,,,,,,,,,,,,,,,,,,0,20,20,34,,,,,,,,,,,,,,,,,,,,,,,,,,,,,,855.2179447999224,1.0143382996320724,856.2249234998599,856.3083456996828,857.1080161994323,857.2080222992226,857.2080222992226,857.2080222992226,left,1,0.7902835011482239,,,,,,,,,,,,,,,,,,,,,,,,,,,,,,,,,,,,003,001,2023-11-15_16h19.43.707,ETproject_Chi_2023.1.1,2023.1.1,59.97123793831685,
3,Month,三月,四月,,Hori,early,left,image/Chi_early.png,"[-0.4, 0]","[0.4, 0]",1,congruent,,,,,,,,,,,,,,,,,,,,,,,,,,,,,,,,,,,,,,0,21,21,19,,,,,,,,,,,,,,,,,,,,,,,,,,,,,,858.0280882995576,0.9992575002834201,859.040633299388,859.1240888992324,859.9235780993477,860.0238612992689,860.0238612992689,860.0238612992689,left,1,0.598492500372231,,,,,,,,,,,,,,,,,,,,,,,,,,,,,,,,,,,,003,001,2023-11-15_16h19.43.707,ETproject_Chi_2023.1.1,2023.1.1,59.97123793831685,
6,Month,六月,七月,,Hori,early,left,image/Chi_early.png,"[-0.4, 0]","[0.4, 0]",1,congruent,,,,,,,,,,,,,,,,,,,,,,,,,,,,,,,,,,,,,,0,22,22,33,,,,,,,,,,,,,,,,,,,,,,,,,,,,,,861.6452281996608,1.0142771005630493,862.6561777992174,862.7394268000498,863.5391480997205,863.6391064999625,863.6391064999625,863.6391064999625,left,1,0.6541298003867269,,,,,,,,,,,,,,,,,,,,,,,,,,,,,,,,,,,,003,001,2023-11-15_16h19.43.707,ETproject_Chi_2023.1.1,2023.1.1,59.97123793831685,
20,Month,十月 ,十二月,,Hori,late,right,image/Chi_late.png,"[-0.4, 0]","[0.4, 0]",2,congruent,,,,,,,,,,,,,,,,,,,,,,,,,,,,,,,,,,,,,,0,23,23,24,,,,,,,,,,,,,,,,,,,,,,,,,,,,,,864.3325574994087,0.9992399998009205,865.3385399999097,865.4219547994435,866.2217068998143,866.3217048998922,866.3217048998922,866.3217048998922,right,1,0.9238850008696318,,,,,,,,,,,,,,,,,,,,,,,,,,,,,,,,,,,,003,001,2023-11-15_16h19.43.707,ETproject_Chi_2023.1.1,2023.1.1,59.97123793831685,
3,Month,三月,七月,,Hori,early,left,image/Chi_early.png,"[-0.4, 0]","[0.4, 0]",4,congruent,,,,,,,,,,,,,,,,,,,,,,,,,,,,,,,,,,,,,,0,24,24,49,,,,,,,,,,,,,,,,,,,,,,,,,,,,,,867.2805583998561,1.0152925997972488,868.2876799991354,868.3709020996466,869.1707456996664,869.2706566993147,869.2706566993147,869.2706566993147,left,1,0.7508933003991842,,,,,,,,,,,,,,,,,,,,,,,,,,,,,,,,,,,,003,001,2023-11-15_16h19.43.707,ETproject_Chi_2023.1.1,2023.1.1,59.97123793831685,
16,Month,五月,六月,,Hori,late,right,image/Chi_late.png,"[-0.4, 0]","[0.4, 0]",1,congruent,,,,,,,,,,,,,,,,,,,,,,,,,,,,,,,,,,,,,,0,25,25,32,,,,,,,,,,,,,,,,,,,,,,,,,,,,,,870.0640134997666,1.0121216997504234,871.0700750993565,871.1534763993695,871.953068099916,872.0532649997622,872.0532649997622,872.0532649997622,right,1,0.897172000259161,,,,,,,,,,,,,,,,,,,,,,,,,,,,,,,,,,,,003,001,2023-11-15_16h19.43.707,ETproject_Chi_2023.1.1,2023.1.1,59.97123793831685,
135,Week,星期日,星期四,,Hori,late,left,image/Chi_late.png,"[-0.4, 0]","[0.4, 0]",3,incongruent,,,,,,,,,,,,,,,,,,,,,,,,,,,,,,,,,,,,,,0,26,26,12,,,,,,,,,,,,,,,,,,,,,,,,,,,,,,872.9788264995441,1.0104248002171516,873.9855567999184,874.069290199317,874.8687708992511,874.968712599948,874.968712599948,874.968712599948,left,1,1.5659066000953317,,,,,,,,,,,,,,,,,,,,,,,,,,,,,,,,,,,,003,001,2023-11-15_16h19.43.707,ETproject_Chi_2023.1.1,2023.1.1,59.97123793831685,
100,Week,星期四,星期六,,Hori,early,left,image/Chi_early.png,"[-0.4, 0]","[0.4, 0]",2,congruent,,,,,,,,,,,,,,,,,,,,,,,,,,,,,,,,,,,,,,0,27,27,11,,,,,,,,,,,,,,,,,,,,,,,,,,,,,,876.5626185992733,1.012126300483942,877.5679095992818,877.6511210994795,878.4508313992992,878.5509351994842,878.5509351994842,878.5509351994842,left,1,1.6552320010960102,,,,,,,,,,,,,,,,,,,,,,,,,,,,,,,,,,,,003,001,2023-11-15_16h19.43.707,ETproject_Chi_2023.1.1,2023.1.1,59.97123793831685,
67,Month,七月,四月,,Vert,late,up,image/Chi_late.png,"[0, 0.4]","[0, -0.4]",3,incongruent,,,,,,,,,,,,,,,,,,,,,,,,,,,,,,,,,,,,,,0,28,28,6,,,,,,,,,,,,,,,,,,,,,,,,,,,,,,880.2475820994005,0.9990798998624086,881.2499495996162,881.3334352998063,882.1331213992089,882.2330947993323,882.2330947993323,882.2330947993323,up,1,0.8771281009539962,,,,,,,,,,,,,,,,,,,,,,,,,,,,,,,,,,,,003,001,2023-11-15_16h19.43.707,ETproject_Chi_2023.1.1,2023.1.1,59.97123793831685,
132,Week,星期三 ,星期一,,Hori,late,left,image/Chi_late.png,"[-0.4, 0]","[0.4, 0]",2,incongruent,,,,,,,,,,,,,,,,,,,,,,,,,,,,,,,,,,,,,,0,29,29,2,,,,,,,,,,,,,,,,,,,,,,,,,,,,,,883.1371831996366,1.0157682998105884,884.1490600993857,884.2325355997309,885.0318541992456,885.1318663991988,885.1318663991988,885.1318663991988,left,1,0.6981143010780215,,,,,,,,,,,,,,,,,,,,,,,,,,,,,,,,,,,,003,001,2023-11-15_16h19.43.707,ETproject_Chi_2023.1.1,2023.1.1,59.97123793831685,
41,Month,八月,九月 ,,Vert,late,down,image/Chi_late.png,"[0, 0.4]","[0, -0.4]",1,congruent,,,,,,,,,,,,,,,,,,,,,,,,,,,,,,,,,,,,,,0,30,30,23,,,,,,,,,,,,,,,,,,,,,,,,,,,,,,885.8581717992201,1.0106490002945065,886.8649182999507,886.9481699997559,887.7478773994371,887.8478884994984,887.8478884994984,887.8478884994984,up,0,0.9015213008970022,,,,,,,,,,,,,,,,,,,,,,,,,,,,,,,,,,,,003,001,2023-11-15_16h19.43.707,ETproject_Chi_2023.1.1,2023.1.1,59.97123793831685,
39,Month,六月,三月,,Hori,early,right,image/Chi_early.png,"[-0.4, 0]","[0.4, 0]",3,incongruent,,,,,,,,,,,,,,,,,,,,,,,,,,,,,,,,,,,,,,0,31,31,26,,,,,,,,,,,,,,,,,,,,,,,,,,,,,,888.7930494993925,1.0123675996437669,889.7971792994067,889.8804126996547,890.6802153997123,890.7802242999896,890.7802242999896,890.7802242999896,right,1,0.9614645009860396,,,,,,,,,,,,,,,,,,,,,,,,,,,,,,,,,,,,003,001,2023-11-15_16h19.43.707,ETproject_Chi_2023.1.1,2023.1.1,59.97123793831685,
133,Week,星期三 ,星期二,,Hori,late,left,image/Chi_late.png,"[-0.4, 0]","[0.4, 0]",1,incongruent,,,,,,,,,,,,,,,,,,,,,,,,,,,,,,,,,,,,,,0,32,32,30,,,,,,,,,,,,,,,,,,,,,,,,,,,,,,891.7769513996318,1.0098814005032182,892.7795755993575,892.8629866000265,893.6626349994913,893.7627310995013,893.7627310995013,893.7627310995013,left,1,0.7306676004081964,,,,,,,,,,,,,,,,,,,,,,,,,,,,,,,,,,,,003,001,2023-11-15_16h19.43.707,ETproject_Chi_2023.1.1,2023.1.1,59.97123793831685,
17,Month,一月,五月,,Vert,early,up,image/Chi_early.png,"[0, 0.4]","[0, -0.4]",4,congruent,,,,,,,,,,,,,,,,,,,,,,,,,,,,,,,,,,,,,,0,33,33,35,,,,,,,,,,,,,,,,,,,,,,,,,,,,,,894.5327604999766,1.00996039994061,895.5453756991774,895.6119127999991,896.4117704993114,896.5116887995973,896.5116887995973,896.5116887995973,down,0,0.6533529004082084,,,,,,,,,,,,,,,,,,,,,,,,,,,,,,,,,,,,003,001,2023-11-15_16h19.43.707,ETproject_Chi_2023.1.1,2023.1.1,59.97123793831685,
49,Month,六月,五月,,Hori,early,right,image/Chi_early.png,"[-0.4, 0]","[0.4, 0]",1,incongruent,,,,,,,,,,,,,,,,,,,,,,,,,,,,,,,,,,,,,,0,34,34,20,,,,,,,,,,,,,,,,,,,,,,,,,,,,,,897.1986664999276,1.0142180006951094,898.2111337995157,898.2943685995415,899.094173499383,899.1942206993699,899.1942206993699,899.1942206993699,right,1,1.2997482009232044,,,,,,,,,,,,,,,,,,,,,,,,,,,,,,,,,,,,003,001,2023-11-15_16h19.43.707,ETproject_Chi_2023.1.1,2023.1.1,59.97123793831685,
141,Week,星期四,星期三 ,,Vert,early,down,image/Chi_early.png,"[0, 0.4]","[0, -0.4]",1,incongruent,,,,,,,,,,,,,,,,,,,,,,,,,,,,,,,,,,,,,,0,35,35,7,,,,,,,,,,,,,,,,,,,,,,,,,,,,,,900.5283827995881,1.0105591006577015,901.5265164999291,901.6099386997521,902.409668199718,902.509700499475,902.509700499475,902.509700499475,down,1,1.0315041011199355,,,,,,,,,,,,,,,,,,,,,,,,,,,,,,,,,,,,003,001,2023-11-15_16h19.43.707,ETproject_Chi_2023.1.1,2023.1.1,59.97123793831685,
74,Month,六月,四月,,Vert,late,up,image/Chi_late.png,"[0, 0.4]","[0, -0.4]",2,incongruent,,,,,,,,,,,,,,,,,,,,,,,,,,,,,,,,,,,,,,0,36,36,27,,,,,,,,,,,,,,,,,,,,,,,,,,,,,,903.5715060997754,1.0130807999521494,904.5757597992197,904.6589517993852,905.4588124994189,905.5586079992354,905.5586079992354,905.5586079992354,up,1,0.9428730010986328,,,,,,,,,,,,,,,,,,,,,,,,,,,,,,,,,,,,003,001,2023-11-15_16h19.43.707,ETproject_Chi_2023.1.1,2023.1.1,59.97123793831685,
