No,Category,earlier_stim,later_stim,conguency,orientation,instruction,corr_resp,Instruction_stim,early_position,late_position,distance,congruency,Image,Qustion,Response,CorrAns,Path,prac_block.thisRepN,prac_block.thisTrialN,prac_block.thisN,prac_block.thisIndex,trials.thisRepN,trials.thisTrialN,trials.thisN,trials.thisIndex,block1.thisRepN,block1.thisTrialN,block1.thisN,block1.thisIndex,break1.thisRepN,break1.thisTrialN,break1.thisN,break1.thisIndex,block2.thisRepN,block2.thisTrialN,block2.thisN,block2.thisIndex,break2.thisRepN,break2.thisTrialN,break2.thisN,break2.thisIndex,block3.thisRepN,block3.thisTrialN,block3.thisN,block3.thisIndex,break3.thisRepN,break3.thisTrialN,break3.thisN,break3.thisIndex,block4.thisRepN,block4.thisTrialN,block4.thisN,block4.thisIndex,intro_1.started,intro_1.stopped,intro_2.started,intro2_resp.started,intro2_resp.keys,intro2_resp.rt,Intro_3.started,intro3_resp.started,intro3_resp.keys,intro3_resp.rt,pracintro.started,pracintro_resp.started,pracintro_resp.keys,pracintro_resp.rt,image.started,early.started,RESP.started,late.started,pracfeedback.started,pracfeedback.stopped,text_4.started,text_5.started,text_4.stopped,baselinerecord.started,intro_5.started,intro5_resp.started,intro5_resp.keys,intro5_resp.rt,main_image_2.started,etRecord.started,fix.started,main_image_2.stopped,fix.stopped,main_early.started,ct_resp.started,main_late.started,ct_resp.keys,ct_resp.corr,ct_resp.rt,intro.started,intro2_resp_2.started,intro2_resp_2.keys,intro2_resp_2.rt,fengjing.started,text.started,fengjing.stopped,text.stopped,key_resp.started,text_2.started,text_3.started,key_resp.keys,key_resp.corr,key_resp.rt,intro_6.started,intro5_resp_2.started,intro5_resp_2.keys,intro5_resp_2.rt,intro_3.started,intro2_resp_3.started,intro2_resp_3.keys,intro2_resp_3.rt,intro_7.started,intro2_resp_5.started,intro2_resp_5.keys,intro2_resp_5.rt,intro_4.started,intro2_resp_4.started,intro2_resp_4.keys,intro2_resp_4.rt,intro_8.started,intro2_resp_6.started,intro2_resp_6.keys,intro2_resp_6.rt,theend.started,theend.stopped,participant,session,date,expName,psychopyVersion,frameRate,
,,,,,,,,,,,,,,,,,,,,,,,,,,,,,,,,,,,,,,,,,,,,,,,,,,,,,,128.07430659999955,130.08640520000336,130.08640520000336,130.08640520000336,space,6.206631599990942,,,,,,,,,,,,,,,,,,,,,,,,,,,,,,,,,,,,,,,,,,,,,,,,,,,,,,,,,,,,,,,,,,,,,,004,001,2023-11-16_10h59.34.121,ETproject_Chi_2023.1.1,2023.1.1,59.96523215979998,
,,,,,,,,,,,,,,,,,,,,,,,,,,,,,,,,,,,,,,,,,,,,,,,,,,,,,,,,,,,,136.31791740000335,136.31791740000335,space,8.182627499991213,,,,,,,,,,,,,,,,,,,,,,,,,,,,,,,,,,,,,,,,,,,,,,,,,,,,,,,,,,,,,,,,,,004,001,2023-11-16_10h59.34.121,ETproject_Chi_2023.1.1,2023.1.1,59.96523215979998,
3,practice,星期一,星期二,congruent,Vert,early,up,image/Chi_early.png,"[0, 0.4]","[0, -0.4]",,,,,,,,0,0,0,0,0,0,0,2,,,,,,,,,,,,,,,,,,,,,,,,,,,,,,,,,,,,,,,144.573848299995,144.573848299995,space,2.6393820000084816,147.3555969999943,148.24653620000026,148.24653620000026,148.24653620000026,150.2248943999948,,,,,,,,,,,,,,,,,,,,,,,,,,,,,,,,,,,,,,,,,,,,,,,,,,,,,,,,,004,001,2023-11-16_10h59.34.121,ETproject_Chi_2023.1.1,2023.1.1,59.96523215979998,
2,practice,星期五,星期六,congruent,Hori,late,right,image/Chi_late.png,"[-0.4, 0]","[0.4, 0]",,,,,,,,0,0,0,0,0,1,1,1,,,,,,,,,,,,,,,,,,,,,,,,,,,,,,,,,,,,,,,,,,,151.26189879999583,152.19543680000788,152.19543680000788,152.19543680000788,153.24522089999664,154.24630770000658,,,,,,,,,,,,,,,,,,,,,,,,,,,,,,,,,,,,,,,,,,,,,,,,,,,,,,,,004,001,2023-11-16_10h59.34.121,ETproject_Chi_2023.1.1,2023.1.1,59.96523215979998,
4,practice,星期日,星期一,congruent,Vert,late,down,image/Chi_late.png,"[0, 0.4]","[0, -0.4]",,,,,,,,0,0,0,0,0,2,2,3,,,,,,,,,,,,,,,,,,,,,,,,,,,,,,,,,,,,,,,,,,,154.24630770000658,155.26108030000614,155.26108030000614,155.26108030000614,156.9298917000051,,,,,,,,,,,,,,,,,,,,,,,,,,,,,,,,,,,,,,,,,,,,,,,,,,,,,,,,,004,001,2023-11-16_10h59.34.121,ETproject_Chi_2023.1.1,2023.1.1,59.96523215979998,
1,practice,星期三 ,星期四,congruent,Hori,early,left,image/Chi_early.png,"[-0.4, 0]","[0.4, 0]",,,,,,,,0,0,0,0,0,3,3,0,,,,,,,,,,,,,,,,,,,,,,,,,,,,,,,,,,,,,,,,,,,157.94790439999633,158.94307810000464,158.94307810000464,158.94307810000464,160.49271260000387,161.49888449999708,,,,,,,,,,,,,,,,,,,,,,,,,,,,,,,,,,,,,,,,,,,,,,,,,,,,,,,,004,001,2023-11-16_10h59.34.121,ETproject_Chi_2023.1.1,2023.1.1,59.96523215979998,
8,practice,星期六,星期五,incongruent,Vert,late,up,image/Chi_late.png,"[0, 0.4]","[0, -0.4]",,,,,,,,0,0,0,0,0,4,4,7,,,,,,,,,,,,,,,,,,,,,,,,,,,,,,,,,,,,,,,,,,,161.49888449999708,162.50871650000772,162.50871650000772,162.50871650000772,164.10816660000273,165.11583750000136,,,,,,,,,,,,,,,,,,,,,,,,,,,,,,,,,,,,,,,,,,,,,,,,,,,,,,,,004,001,2023-11-16_10h59.34.121,ETproject_Chi_2023.1.1,2023.1.1,59.96523215979998,
5,practice,星期二,星期一,incongruent,Hori,early,right,image/Chi_early.png,"[-0.4, 0]","[0.4, 0]",,,,,,,,0,0,0,0,0,5,5,4,,,,,,,,,,,,,,,,,,,,,,,,,,,,,,,,,,,,,,,,,,,165.11583750000136,166.1240886999949,166.1240886999949,166.1240886999949,167.94030949999433,168.9443539999993,,,,,,,,,,,,,,,,,,,,,,,,,,,,,,,,,,,,,,,,,,,,,,,,,,,,,,,,004,001,2023-11-16_10h59.34.121,ETproject_Chi_2023.1.1,2023.1.1,59.96523215979998,
6,practice,星期四,星期三 ,incongruent,Hori,late,left,image/Chi_late.png,"[-0.4, 0]","[0.4, 0]",,,,,,,,0,0,0,0,0,6,6,5,,,,,,,,,,,,,,,,,,,,,,,,,,,,,,,,,,,,,,,,,,,168.9443539999993,169.9562031000023,169.9562031000023,169.9562031000023,171.70572740000352,172.7089141999968,,,,,,,,,,,,,,,,,,,,,,,,,,,,,,,,,,,,,,,,,,,,,,,,,,,,,,,,004,001,2023-11-16_10h59.34.121,ETproject_Chi_2023.1.1,2023.1.1,59.96523215979998,
7,practice,星期三 ,星期二,incongruent,Vert,early,down,image/Chi_early.png,"[0, 0.4]","[0, -0.4]",,,,,,,,0,0,0,0,0,7,7,6,,,,,,,,,,,,,,,,,,,,,,,,,,,,,,,,,,,,,,,,,,,172.7089141999968,173.72151579999627,173.72151579999627,173.72151579999627,175.78785220000282,176.78744530000404,,,,,,,,,,,,,,,,,,,,,,,,,,,,,,,,,,,,,,,,,,,,,,,,,,,,,,,,004,001,2023-11-16_10h59.34.121,ETproject_Chi_2023.1.1,2023.1.1,59.96523215979998,
,,,,,,,,,,,,,,,,,,0,0,0,0,,,,,,,,,,,,,,,,,,,,,,,,,,,,,,,,,,,,,,,,,,,,,,,,,,,,,,,,,,,,,,,,,,,,,,,,,,,,,,,,,,,,,,,,,,,,,,,,,,,,,,,,,,,,004,001,2023-11-16_10h59.34.121,ETproject_Chi_2023.1.1,2023.1.1,59.96523215979998,
,,,,,,,,,,,,,,,,,,,,,,,,,,,,,,,,,,,,,,,,,,,,,,,,,,,,,,,,,,,,,,,,,,,,,,,,,,176.78744530000404,179.78646819999994,179.8027813000008,3.0146755000023404,183.80152060000546,183.80152060000546,space,3.7723610999964876,,,,,,,,,,,,,,,,,,,,,,,,,,,,,,,,,,,,,,,,,,,,,,,,004,001,2023-11-16_10h59.34.121,ETproject_Chi_2023.1.1,2023.1.1,59.96523215979998,
132,Week,星期四,星期一,,Hori,late,left,image/Chi_late.png,"[-0.4, 0]","[0.4, 0]",3,incongruent,,,,,,,,,,,,,,0,0,0,19,,,,,,,,,,,,,,,,,,,,,,,,,,,,,,,,,,,,,,,,,,,,,,,,,,,,,187.75748429999658,0.9998424999939743,188.68438620000234,188.76667020000605,189.4996236000079,189.5997700999942,189.5997700999942,189.5997700999942,left,1,1.4211522999976296,,,,,,,,,,,,,,,,,,,,,,,,,,,,,,,,,,,,,004,001,2023-11-16_10h59.34.121,ETproject_Chi_2023.1.1,2023.1.1,59.96523215979998,
114,Week,星期四,星期日,,Vert,early,up,image/Chi_early.png,"[0, 0.4]","[0, -0.4]",3,congruent,,,,,,,,,,,,,,0,1,1,12,,,,,,,,,,,,,,,,,,,,,,,,,,,,,,,,,,,,,,,,,,,,,,,,,,,,,191.06012909999845,1.0127549000026193,192.14886049999768,192.06552520000696,192.94850350000343,193.04850080000324,193.04850080000324,193.04850080000324,up,1,4.020130699995207,,,,,,,,,,,,,,,,,,,,,,,,,,,,,,,,,,,,,004,001,2023-11-16_10h59.34.121,ETproject_Chi_2023.1.1,2023.1.1,59.96523215979998,
127,Week,星期五,星期三 ,,Hori,early,right,image/Chi_early.png,"[-0.4, 0]","[0.4, 0]",2,incongruent,,,,,,,,,,,,,,0,2,2,13,,,,,,,,,,,,,,,,,,,,,,,,,,,,,,,,,,,,,,,,,,,,,,,,,,,,,197.1205034999948,1.0122264999954496,198.19679320000432,198.1300904000018,198.99652609999612,199.09675990000687,199.09675990000687,199.09675990000687,right,1,1.0768507000029786,,,,,,,,,,,,,,,,,,,,,,,,,,,,,,,,,,,,,004,001,2023-11-16_10h59.34.121,ETproject_Chi_2023.1.1,2023.1.1,59.96523215979998,
6,Month,六月,十月 ,,Hori,early,left,image/Chi_early.png,"[-0.4, 0]","[0.4, 0]",4,congruent,,,,,,,,,,,,,,0,3,3,29,,,,,,,,,,,,,,,,,,,,,,,,,,,,,,,,,,,,,,,,,,,,,,,,,,,,,200.20711049999954,1.0106889000016963,201.29572689999623,201.21234859999822,202.09541659999377,202.19578519999777,202.19578519999777,202.19578519999777,left,1,2.6655469999968773,,,,,,,,,,,,,,,,,,,,,,,,,,,,,,,,,,,,,004,001,2023-11-16_10h59.34.121,ETproject_Chi_2023.1.1,2023.1.1,59.96523215979998,
50,Month,八月,五月,,Hori,late,left,image/Chi_late.png,"[-0.4, 0]","[0.4, 0]",3,incongruent,,,,,,,,,,,,,,0,4,4,35,,,,,,,,,,,,,,,,,,,,,,,,,,,,,,,,,,,,,,,,,,,,,,,,,,,,,204.88895729999786,1.0129134000017075,205.9776597999953,205.89423169999645,206.77737160000106,206.87735040000553,206.87735040000553,206.87735040000553,left,1,2.0784708999999566,,,,,,,,,,,,,,,,,,,,,,,,,,,,,,,,,,,,,004,001,2023-11-16_10h59.34.121,ETproject_Chi_2023.1.1,2023.1.1,59.96523215979998,
101,Week,星期五,星期六,,Hori,early,left,image/Chi_early.png,"[-0.4, 0]","[0.4, 0]",1,congruent,,,,,,,,,,,,,,0,5,5,42,,,,,,,,,,,,,,,,,,,,,,,,,,,,,,,,,,,,,,,,,,,,,,,,,,,,,209.98835900000267,1.0156067999923835,211.0759321000005,210.99270700000488,211.87553909999406,211.97566180000285,211.97566180000285,211.97566180000285,left,1,3.1565293000021484,,,,,,,,,,,,,,,,,,,,,,,,,,,,,,,,,,,,,004,001,2023-11-16_10h59.34.121,ETproject_Chi_2023.1.1,2023.1.1,59.96523215979998,
58,Month,六月,二月,,Vert,late,up,image/Chi_late.png,"[0, 0.4]","[0, -0.4]",4,incongruent,,,,,,,,,,,,,,0,6,6,18,,,,,,,,,,,,,,,,,,,,,,,,,,,,,,,,,,,,,,,,,,,,,,,,,,,,,215.1698841999969,1.0120749999914551,216.25744419999683,216.1742410000079,217.05734510000184,217.15750910000497,217.15750910000497,217.15750910000497,up,1,1.8082926999923075,,,,,,,,,,,,,,,,,,,,,,,,,,,,,,,,,,,,,004,001,2023-11-16_10h59.34.121,ETproject_Chi_2023.1.1,2023.1.1,59.96523215979998,
118,Week,星期一,星期四,,Vert,late,down,image/Chi_late.png,"[0, 0.4]","[0, -0.4]",3,congruent,,,,,,,,,,,,,,0,7,7,45,,,,,,,,,,,,,,,,,,,,,,,,,,,,,,,,,,,,,,,,,,,,,,,,,,,,,218.99981319999642,1.0115424999967217,220.08973060000426,220.00636839999788,220.88933139999426,220.98935379999602,220.98935379999602,220.98935379999602,up,0,2.9281684000015957,,,,,,,,,,,,,,,,,,,,,,,,,,,,,,,,,,,,,004,001,2023-11-16_10h59.34.121,ETproject_Chi_2023.1.1,2023.1.1,59.96523215979998,
107,Week,星期四,星期六,,Hori,late,right,image/Chi_late.png,"[-0.4, 0]","[0.4, 0]",2,congruent,,,,,,,,,,,,,,0,8,8,16,,,,,,,,,,,,,,,,,,,,,,,,,,,,,,,,,,,,,,,,,,,,,,,,,,,,,223.94568979999895,1.0131790000014007,225.03809290000208,224.95457920000626,225.8378273000053,225.93785639999987,225.93785639999987,225.93785639999987,right,1,2.8669068000017432,,,,,,,,,,,,,,,,,,,,,,,,,,,,,,,,,,,,,004,001,2023-11-16_10h59.34.121,ETproject_Chi_2023.1.1,2023.1.1,59.96523215979998,
136,Week,星期日,星期五,,Hori,late,left,image/Chi_late.png,"[-0.4, 0]","[0.4, 0]",2,incongruent,,,,,,,,,,,,,,0,9,9,17,,,,,,,,,,,,,,,,,,,,,,,,,,,,,,,,,,,,,,,,,,,,,,,,,,,,,228.84834230000706,1.0122125999914715,229.93655550000403,229.8530879999962,230.73611010000604,230.83607130000746,230.83607130000746,230.83607130000746,left,1,1.4883825999859255,,,,,,,,,,,,,,,,,,,,,,,,,,,,,,,,,,,,,004,001,2023-11-16_10h59.34.121,ETproject_Chi_2023.1.1,2023.1.1,59.96523215979998,
99,Week,星期三 ,星期六,,Hori,early,left,image/Chi_early.png,"[-0.4, 0]","[0.4, 0]",3,congruent,,,,,,,,,,,,,,0,10,10,6,,,,,,,,,,,,,,,,,,,,,,,,,,,,,,,,,,,,,,,,,,,,,,,,,,,,,232.3659789000012,1.0117574000032619,233.4519921999963,233.3685570000016,234.25159890000214,234.35163789999933,234.35163789999933,234.35163789999933,left,1,1.3091405000013765,,,,,,,,,,,,,,,,,,,,,,,,,,,,,,,,,,,,,004,001,2023-11-16_10h59.34.121,ETproject_Chi_2023.1.1,2023.1.1,59.96523215979998,
120,Week,星期三 ,星期六,,Vert,late,down,image/Chi_late.png,"[0, 0.4]","[0, -0.4]",3,congruent,,,,,,,,,,,,,,0,11,11,34,,,,,,,,,,,,,,,,,,,,,,,,,,,,,,,,,,,,,,,,,,,,,,,,,,,,,235.69335870000214,1.0110581000044476,236.78412010000466,236.700745800008,237.5839213000072,237.68383800000447,237.68383800000447,237.68383800000447,down,1,2.0401481999870157,,,,,,,,,,,,,,,,,,,,,,,,,,,,,,,,,,,,,004,001,2023-11-16_10h59.34.121,ETproject_Chi_2023.1.1,2023.1.1,59.96523215979998,
12,Week,星期日,星期四,,Vert,late,up,image/Chi_late.png,"[0, 0.4]","[0, -0.4]",3,incongruent,,,,,,,,,,,,,,0,12,12,9,,,,,,,,,,,,,,,,,,,,,,,,,,,,,,,,,,,,,,,,,,,,,,,,,,,,,239.75743089999742,0.9992756999999983,240.8496004999979,240.766214700001,241.64914070000668,241.7492032999944,241.7492032999944,241.7492032999944,up,1,2.175168299989309,,,,,,,,,,,,,,,,,,,,,,,,,,,,,,,,,,,,,004,001,2023-11-16_10h59.34.121,ETproject_Chi_2023.1.1,2023.1.1,59.96523215979998,
97,Week,星期一,星期四,,Hori,early,left,image/Chi_early.png,"[-0.4, 0]","[0.4, 0]",3,congruent,,,,,,,,,,,,,,0,13,13,20,,,,,,,,,,,,,,,,,,,,,,,,,,,,,,,,,,,,,,,,,,,,,,,,,,,,,243.95969730000797,1.0111341000010725,245.04822240000794,244.96471649999876,245.84790939999948,245.94772810000723,245.94772810000723,245.94772810000723,left,1,1.5055801999988034,,,,,,,,,,,,,,,,,,,,,,,,,,,,,,,,,,,,,004,001,2023-11-16_10h59.34.121,ETproject_Chi_2023.1.1,2023.1.1,59.96523215979998,
59,Month,七月,三月,,Vert,late,up,image/Chi_late.png,"[0, 0.4]","[0, -0.4]",4,incongruent,,,,,,,,,,,,,,0,14,14,47,,,,,,,,,,,,,,,,,,,,,,,,,,,,,,,,,,,,,,,,,,,,,,,,,,,,,247.49431400000321,0.9992266000044765,248.58045869999478,248.49699180000607,249.38008500000433,249.4799295000048,249.4799295000048,249.4799295000048,up,1,2.3006647000001976,,,,,,,,,,,,,,,,,,,,,,,,,,,,,,,,,,,,,004,001,2023-11-16_10h59.34.121,ETproject_Chi_2023.1.1,2023.1.1,59.96523215979998,
16,Month,六月,八月,,Hori,late,right,image/Chi_late.png,"[-0.4, 0]","[0.4, 0]",2,congruent,,,,,,,,,,,,,,0,15,15,30,,,,,,,,,,,,,,,,,,,,,,,,,,,,,,,,,,,,,,,,,,,,,,,,,,,,,251.82320520000212,1.0110068000067258,252.91216610000265,252.82889070000238,253.71168830000533,253.8119230999946,253.8119230999946,253.8119230999946,right,1,1.2732779999932973,,,,,,,,,,,,,,,,,,,,,,,,,,,,,,,,,,,,,004,001,2023-11-16_10h59.34.121,ETproject_Chi_2023.1.1,2023.1.1,59.96523215979998,
139,Week,星期四,星期一,,Vert,early,down,image/Chi_early.png,"[0, 0.4]","[0, -0.4]",3,incongruent,,,,,,,,,,,,,,0,16,16,7,,,,,,,,,,,,,,,,,,,,,,,,,,,,,,,,,,,,,,,,,,,,,,,,,,,,,256.1222079000072,1.0150166000094032,257.2106550999961,257.12745140000334,258.01031059999514,258.11040440000215,258.11040440000215,258.11040440000215,down,1,1.4465701000008266,,,,,,,,,,,,,,,,,,,,,,,,,,,,,,,,,,,,,004,001,2023-11-16_10h59.34.121,ETproject_Chi_2023.1.1,2023.1.1,59.96523215979998,
24,Month,四月,六月,,Vert,early,up,image/Chi_early.png,"[0, 0.4]","[0, -0.4]",2,congruent,,,,,,,,,,,,,,0,17,17,8,,,,,,,,,,,,,,,,,,,,,,,,,,,,,,,,,,,,,,,,,,,,,,,,,,,,,260.58378969999467,1.0156664999958593,261.67591719999473,261.59246380000695,262.47578230000363,262.57568970000284,262.57568970000284,262.57568970000284,up,1,2.0936749999964377,,,,,,,,,,,,,,,,,,,,,,,,,,,,,,,,,,,,,004,001,2023-11-16_10h59.34.121,ETproject_Chi_2023.1.1,2023.1.1,59.96523215979998,
78,Month,十月 ,八月,,Vert,late,up,image/Chi_late.png,"[0, 0.4]","[0, -0.4]",2,incongruent,,,,,,,,,,,,,,0,18,18,44,,,,,,,,,,,,,,,,,,,,,,,,,,,,,,,,,,,,,,,,,,,,,,,,,,,,,264.7019145000013,1.012427800000296,265.79113230000803,265.70798990000185,266.5909778999994,266.69110089999594,266.69110089999594,266.69110089999594,up,1,1.3223541999905137,,,,,,,,,,,,,,,,,,,,,,,,,,,,,,,,,,,,,004,001,2023-11-16_10h59.34.121,ETproject_Chi_2023.1.1,2023.1.1,59.96523215979998,
63,Month,十二月,九月 ,,Vert,early,down,image/Chi_early.png,"[0, 0.4]","[0, -0.4]",3,incongruent,,,,,,,,,,,,,,0,19,19,22,,,,,,,,,,,,,,,,,,,,,,,,,,,,,,,,,,,,,,,,,,,,,,,,,,,,,268.0535488999958,0.9990366999991238,269.1400786999948,269.05697040000086,269.93980759999977,270.03993590000755,270.03993590000755,270.03993590000755,up,0,1.7895500000013271,,,,,,,,,,,,,,,,,,,,,,,,,,,,,,,,,,,,,004,001,2023-11-16_10h59.34.121,ETproject_Chi_2023.1.1,2023.1.1,59.96523215979998,
141,Week,星期五,星期三 ,,Vert,early,down,image/Chi_early.png,"[0, 0.4]","[0, -0.4]",2,incongruent,,,,,,,,,,,,,,0,20,20,15,,,,,,,,,,,,,,,,,,,,,,,,,,,,,,,,,,,,,,,,,,,,,,,,,,,,,271.8653240000058,1.0108634000062011,272.9554590999978,272.8721936000002,273.7553131999957,273.85532409999723,273.85532409999723,273.85532409999723,down,1,2.4525253000028897,,,,,,,,,,,,,,,,,,,,,,,,,,,,,,,,,,,,,004,001,2023-11-16_10h59.34.121,ETproject_Chi_2023.1.1,2023.1.1,59.96523215979998,
45,Month,九月 ,五月,,Hori,late,left,image/Chi_late.png,"[-0.4, 0]","[0.4, 0]",4,incongruent,,,,,,,,,,,,,,0,21,21,39,,,,,,,,,,,,,,,,,,,,,,,,,,,,,,,,,,,,,,,,,,,,,,,,,,,,,276.3496965000013,1.0137266000092495,277.4375218999994,277.3540950999959,278.23725549999654,278.337254399994,278.337254399994,278.337254399994,left,1,1.37943039998936,,,,,,,,,,,,,,,,,,,,,,,,,,,,,,,,,,,,,004,001,2023-11-16_10h59.34.121,ETproject_Chi_2023.1.1,2023.1.1,59.96523215979998,
1,Month,一月,二月 ,,Hori,early,left,image/Chi_early.png,"[-0.4, 0]","[0.4, 0]",1,congruent,,,,,,,,,,,,,,0,22,22,28,,,,,,,,,,,,,,,,,,,,,,,,,,,,,,,,,,,,,,,,,,,,,,,,,,,,,279.75031989999843,1.0102325000043493,280.8362827000019,280.7527535000045,281.63603319999675,281.73596490000637,281.73596490000637,281.73596490000637,left,1,1.6359204000036698,,,,,,,,,,,,,,,,,,,,,,,,,,,,,,,,,,,,,004,001,2023-11-16_10h59.34.121,ETproject_Chi_2023.1.1,2023.1.1,59.96523215979998,
148,Week,星期六,星期三 ,,Vert,late,up,image/Chi_late.png,"[0, 0.4]","[0, -0.4]",3,incongruent,,,,,,,,,,,,,,0,23,23,26,,,,,,,,,,,,,,,,,,,,,,,,,,,,,,,,,,,,,,,,,,,,,,,,,,,,,283.4139900999944,1.0114438000018708,284.50172710000334,284.41847720000806,285.30147349999606,285.401383299999,285.401383299999,285.401383299999,up,1,1.316159299996798,,,,,,,,,,,,,,,,,,,,,,,,,,,,,,,,,,,,,004,001,2023-11-16_10h59.34.121,ETproject_Chi_2023.1.1,2023.1.1,59.96523215979998,
29,Month,七月,八月,,Vert,early,up,image/Chi_early.png,"[0, 0.4]","[0, -0.4]",1,congruent,,,,,,,,,,,,,,0,24,24,2,,,,,,,,,,,,,,,,,,,,,,,,,,,,,,,,,,,,,,,,,,,,,,,,,,,,,286.74580369999603,1.0131610999960685,287.83397250000417,287.75074080000195,288.6337490000078,288.73369669999374,288.73369669999374,288.73369669999374,up,1,1.6542295000108425,,,,,,,,,,,,,,,,,,,,,,,,,,,,,,,,,,,,,004,001,2023-11-16_10h59.34.121,ETproject_Chi_2023.1.1,2023.1.1,59.96523215979998,
142,Week,星期五,星期四,,Vert,early,down,image/Chi_early.png,"[0, 0.4]","[0, -0.4]",1,incongruent,,,,,,,,,,,,,,0,25,25,0,,,,,,,,,,,,,,,,,,,,,,,,,,,,,,,,,,,,,,,,,,,,,,,,,,,,,290.42197420000593,1.0155805999966105,291.515937199998,291.43275919999724,292.3159075999938,292.4158304999946,292.4158304999946,292.4158304999946,down,1,1.7487011999910465,,,,,,,,,,,,,,,,,,,,,,,,,,,,,,,,,,,,,004,001,2023-11-16_10h59.34.121,ETproject_Chi_2023.1.1,2023.1.1,59.96523215979998,
112,Week,星期二,星期五,,Vert,early,up,image/Chi_early.png,"[0, 0.4]","[0, -0.4]",3,congruent,,,,,,,,,,,,,,0,26,26,24,,,,,,,,,,,,,,,,,,,,,,,,,,,,,,,,,,,,,,,,,,,,,,,,,,,,,294.1933688000063,1.0103742000064813,295.281630999998,295.1982513000039,296.0811353999961,296.18123229999765,296.18123229999765,296.18123229999765,up,1,1.9193181000009645,,,,,,,,,,,,,,,,,,,,,,,,,,,,,,,,,,,,,004,001,2023-11-16_10h59.34.121,ETproject_Chi_2023.1.1,2023.1.1,59.96523215979998,
143,Week,星期六,星期五,,Vert,early,down,image/Chi_early.png,"[0, 0.4]","[0, -0.4]",1,incongruent,,,,,,,,,,,,,,0,27,27,36,,,,,,,,,,,,,,,,,,,,,,,,,,,,,,,,,,,,,,,,,,,,,,,,,,,,,298.13714990000153,1.0146609000075841,299.23011419999966,299.14692439999635,300.03009150000435,300.1298823000034,300.1298823000034,300.1298823000034,down,1,1.3379491999949096,,,,,,,,,,,,,,,,,,,,,,,,,,,,,,,,,,,,,004,001,2023-11-16_10h59.34.121,ETproject_Chi_2023.1.1,2023.1.1,59.96523215979998,
75,Month,十月 ,九月 ,,Vert,early,down,image/Chi_early.png,"[0, 0.4]","[0, -0.4]",1,incongruent,,,,,,,,,,,,,,0,28,28,1,,,,,,,,,,,,,,,,,,,,,,,,,,,,,,,,,,,,,,,,,,,,,,,,,,,,,301.5007665999947,0.9993042999994941,302.5958823000037,302.512418899998,303.3956141000017,303.4955768,303.4955768,303.4955768,down,1,1.3804974999948172,,,,,,,,,,,,,,,,,,,,,,,,,,,,,,,,,,,,,004,001,2023-11-16_10h59.34.121,ETproject_Chi_2023.1.1,2023.1.1,59.96523215979998,
98,Week,星期二,星期三 ,,Hori,early,left,image/Chi_early.png,"[-0.4, 0]","[0.4, 0]",1,congruent,,,,,,,,,,,,,,0,29,29,49,,,,,,,,,,,,,,,,,,,,,,,,,,,,,,,,,,,,,,,,,,,,,,,,,,,,,304.8991795999973,0.9990171999961603,305.99466499999835,305.91129520000686,306.7942777000062,306.8942581999945,306.8942581999945,306.8942581999945,left,1,1.085678999996162,,,,,,,,,,,,,,,,,,,,,,,,,,,,,,,,,,,,,004,001,2023-11-16_10h59.34.121,ETproject_Chi_2023.1.1,2023.1.1,59.96523215979998,
20,Month,四月,八月,,Vert,early,up,image/Chi_early.png,"[0, 0.4]","[0, -0.4]",4,congruent,,,,,,,,,,,,,,0,30,30,4,,,,,,,,,,,,,,,,,,,,,,,,,,,,,,,,,,,,,,,,,,,,,,,,,,,,,308.01577330000146,0.9991489999956684,309.1101767,309.0269219999973,309.91001620000316,310.01006130000314,310.01006130000314,310.01006130000314,left,0,2.889874000000418,,,,,,,,,,,,,,,,,,,,,,,,,,,,,,,,,,,,,004,001,2023-11-16_10h59.34.121,ETproject_Chi_2023.1.1,2023.1.1,59.96523215979998,
62,Month,十月 ,六月,,Vert,late,up,image/Chi_late.png,"[0, 0.4]","[0, -0.4]",4,incongruent,,,,,,,,,,,,,,0,31,31,27,,,,,,,,,,,,,,,,,,,,,,,,,,,,,,,,,,,,,,,,,,,,,,,,,,,,,312.93855830000393,1.0114620000094874,314.0254715999981,313.94204210000316,314.825190399999,314.9251432999954,314.9251432999954,314.9251432999954,up,1,3.943819499996607,,,,,,,,,,,,,,,,,,,,,,,,,,,,,,,,,,,,,004,001,2023-11-16_10h59.34.121,ETproject_Chi_2023.1.1,2023.1.1,59.96523215979998,
49,Month,七月,四月,,Hori,late,left,image/Chi_late.png,"[-0.4, 0]","[0.4, 0]",3,incongruent,,,,,,,,,,,,,,0,32,32,38,,,,,,,,,,,,,,,,,,,,,,,,,,,,,,,,,,,,,,,,,,,,,,,,,,,,,318.8969297000076,1.0148843999922974,319.9900262999945,319.90680370000337,320.78991539999697,320.8897164000009,320.8897164000009,320.8897164000009,left,1,1.2988406000076793,,,,,,,,,,,,,,,,,,,,,,,,,,,,,,,,,,,,,004,001,2023-11-16_10h59.34.121,ETproject_Chi_2023.1.1,2023.1.1,59.96523215979998,
125,Week,星期三 ,星期一,,Hori,early,right,image/Chi_early.png,"[-0.4, 0]","[0.4, 0]",2,incongruent,,,,,,,,,,,,,,0,33,33,5,,,,,,,,,,,,,,,,,,,,,,,,,,,,,,,,,,,,,,,,,,,,,,,,,,,,,323.21888609999587,1.0149610999942524,324.30534119999356,324.22187129999656,325.1053180999952,325.20532499999536,325.20532499999536,325.20532499999536,right,1,3.1906960000051185,,,,,,,,,,,,,,,,,,,,,,,,,,,,,,,,,,,,,004,001,2023-11-16_10h59.34.121,ETproject_Chi_2023.1.1,2023.1.1,59.96523215979998,
126,Week,星期三 ,星期二,,Hori,early,right,image/Chi_early.png,"[-0.4, 0]","[0.4, 0]",1,incongruent,,,,,,,,,,,,,,0,34,34,25,,,,,,,,,,,,,,,,,,,,,,,,,,,,,,,,,,,,,,,,,,,,,,,,,,,,,329.4235772000029,1.0150729999877512,330.51991130000533,330.4366585000025,331.3197693000038,331.41968060000363,331.41968060000363,331.41968060000363,right,1,0.8803155000059633,,,,,,,,,,,,,,,,,,,,,,,,,,,,,,,,,,,,,004,001,2023-11-16_10h59.34.121,ETproject_Chi_2023.1.1,2023.1.1,59.96523215979998,
101,Week,星期五,星期日,,Hori,early,left,image/Chi_early.png,"[-0.4, 0]","[0.4, 0]",2,congruent,,,,,,,,,,,,,,0,35,35,40,,,,,,,,,,,,,,,,,,,,,,,,,,,,,,,,,,,,,,,,,,,,,,,,,,,,,332.3339000000051,1.0106330999988131,333.41921020000154,333.3356516999993,334.2186537000016,334.3187010000038,334.3187010000038,334.3187010000038,left,1,1.8056415999890305,,,,,,,,,,,,,,,,,,,,,,,,,,,,,,,,,,,,,004,001,2023-11-16_10h59.34.121,ETproject_Chi_2023.1.1,2023.1.1,59.96523215979998,
34,Month,七月,十月 ,,Vert,late,down,image/Chi_late.png,"[0, 0.4]","[0, -0.4]",3,congruent,,,,,,,,,,,,,,0,36,36,11,,,,,,,,,,,,,,,,,,,,,,,,,,,,,,,,,,,,,,,,,,,,,,,,,,,,,336.1616741999969,0.9991864000039641,337.2510356000057,337.1676398000054,338.050794200004,338.15074129999994,338.15074129999994,338.15074129999994,down,1,2.0530768999888096,,,,,,,,,,,,,,,,,,,,,,,,,,,,,,,,,,,,,004,001,2023-11-16_10h59.34.121,ETproject_Chi_2023.1.1,2023.1.1,59.96523215979998,
38,Month,八月,十月 ,,Vert,late,down,image/Chi_late.png,"[0, 0.4]","[0, -0.4]",2,congruent,,,,,,,,,,,,,,0,37,37,37,,,,,,,,,,,,,,,,,,,,,,,,,,,,,,,,,,,,,,,,,,,,,,,,,,,,,340.239796700007,1.0129297000094084,341.33310890000575,341.2496183999974,342.13279510000575,342.23285629999737,342.23285629999737,342.23285629999737,down,1,1.2352211999968858,,,,,,,,,,,,,,,,,,,,,,,,,,,,,,,,,,,,,004,001,2023-11-16_10h59.34.121,ETproject_Chi_2023.1.1,2023.1.1,59.96523215979998,
34,Month,六月,二月,,Hori,early,right,image/Chi_early.png,"[-0.4, 0]","[0.4, 0]",4,incongruent,,,,,,,,,,,,,,0,38,38,21,,,,,,,,,,,,,,,,,,,,,,,,,,,,,,,,,,,,,,,,,,,,,,,,,,,,,343.5139279000068,1.0101267999998527,344.59863430000405,344.51531789999717,345.39834330000303,345.49853629999416,345.49853629999416,345.49853629999416,right,1,3.2016828000050737,,,,,,,,,,,,,,,,,,,,,,,,,,,,,,,,,,,,,004,001,2023-11-16_10h59.34.121,ETproject_Chi_2023.1.1,2023.1.1,59.96523215979998,
23,Month,七月,十一月 ,,Vert,early,up,image/Chi_early.png,"[0, 0.4]","[0, -0.4]",4,congruent,,,,,,,,,,,,,,0,39,39,48,,,,,,,,,,,,,,,,,,,,,,,,,,,,,,,,,,,,,,,,,,,,,,,,,,,,,348.7352102999939,1.0147405000025174,349.830280999995,349.747019800001,350.62988129999576,350.72987000000285,350.72987000000285,350.72987000000285,up,1,1.7866856000036933,,,,,,,,,,,,,,,,,,,,,,,,,,,,,,,,,,,,,004,001,2023-11-16_10h59.34.121,ETproject_Chi_2023.1.1,2023.1.1,59.96523215979998,
112,Week,星期二,星期三 ,,Vert,early,up,image/Chi_early.png,"[0, 0.4]","[0, -0.4]",1,congruent,,,,,,,,,,,,,,0,40,40,31,,,,,,,,,,,,,,,,,,,,,,,,,,,,,,,,,,,,,,,,,,,,,,,,,,,,,352.5538228000005,1.0125560000014957,353.6459449000031,353.5622413000019,354.44546219999756,354.5454339000062,354.5454339000062,354.5454339000062,up,1,1.4513761999987764,,,,,,,,,,,,,,,,,,,,,,,,,,,,,,,,,,,,,004,001,2023-11-16_10h59.34.121,ETproject_Chi_2023.1.1,2023.1.1,59.96523215979998,
150,Week,星期六,星期五,,Vert,late,up,image/Chi_late.png,"[0, 0.4]","[0, -0.4]",1,incongruent,,,,,,,,,,,,,,0,41,41,23,,,,,,,,,,,,,,,,,,,,,,,,,,,,,,,,,,,,,,,,,,,,,,,,,,,,,356.04367320000165,1.0114305000024615,357.12795709999773,357.04444689999946,357.92762350000703,358.0275818000009,358.0275818000009,358.0275818000009,up,1,3.465215200005332,,,,,,,,,,,,,,,,,,,,,,,,,,,,,,,,,,,,,004,001,2023-11-16_10h59.34.121,ETproject_Chi_2023.1.1,2023.1.1,59.96523215979998,
46,Month,四月,一月,,Hori,late,left,image/Chi_late.png,"[-0.4, 0]","[0.4, 0]",3,incongruent,,,,,,,,,,,,,,0,42,42,14,,,,,,,,,,,,,,,,,,,,,,,,,,,,,,,,,,,,,,,,,,,,,,,,,,,,,361.5162826999949,1.014210199995432,362.60956469999655,362.52592130000266,363.4090561999983,363.5091384000043,363.5091384000043,363.5091384000043,left,1,2.3600754999933997,,,,,,,,,,,,,,,,,,,,,,,,,,,,,,,,,,,,,004,001,2023-11-16_10h59.34.121,ETproject_Chi_2023.1.1,2023.1.1,59.96523215979998,
26,Month,六月,八月,,Vert,early,up,image/Chi_early.png,"[0, 0.4]","[0, -0.4]",2,congruent,,,,,,,,,,,,,,0,43,43,32,,,,,,,,,,,,,,,,,,,,,,,,,,,,,,,,,,,,,,,,,,,,,,,,,,,,,366.90422200000467,1.0146779999922728,367.9908746000074,367.9075967000026,368.79057780000585,368.89063319999696,368.89063319999696,368.89063319999696,up,1,2.7939881999918725,,,,,,,,,,,,,,,,,,,,,,,,,,,,,,,,,,,,,004,001,2023-11-16_10h59.34.121,ETproject_Chi_2023.1.1,2023.1.1,59.96523215979998,
150,Week,星期日,星期五,,Vert,late,up,image/Chi_late.png,"[0, 0.4]","[0, -0.4]",2,incongruent,,,,,,,,,,,,,,0,44,44,46,,,,,,,,,,,,,,,,,,,,,,,,,,,,,,,,,,,,,,,,,,,,,,,,,,,,,371.7225552999953,1.012110900002881,372.8060461000059,372.7228966000039,373.6056955000022,373.7056075000073,373.7056075000073,373.7056075000073,up,1,1.6584176999895135,,,,,,,,,,,,,,,,,,,,,,,,,,,,,,,,,,,,,004,001,2023-11-16_10h59.34.121,ETproject_Chi_2023.1.1,2023.1.1,59.96523215979998,
116,Week,星期六,星期日,,Vert,early,up,image/Chi_early.png,"[0, 0.4]","[0, -0.4]",1,congruent,,,,,,,,,,,,,,0,45,45,10,,,,,,,,,,,,,,,,,,,,,,,,,,,,,,,,,,,,,,,,,,,,,,,,,,,,,375.4030664999955,1.0119164999923669,376.48823369999445,376.40465699999913,377.28782809999393,377.3878775999983,377.3878775999983,377.3878775999983,up,1,1.7686552999948617,,,,,,,,,,,,,,,,,,,,,,,,,,,,,,,,,,,,,004,001,2023-11-16_10h59.34.121,ETproject_Chi_2023.1.1,2023.1.1,59.96523215979998,
106,Week,星期三 ,星期六,,Hori,late,right,image/Chi_late.png,"[-0.4, 0]","[0.4, 0]",3,congruent,,,,,,,,,,,,,,0,46,46,3,,,,,,,,,,,,,,,,,,,,,,,,,,,,,,,,,,,,,,,,,,,,,,,,,,,,,379.19531730000017,1.0158137000107672,380.28691479999543,380.2033956000014,381.08653920000506,381.18651439999667,381.18651439999667,381.18651439999667,right,1,1.874474399999599,,,,,,,,,,,,,,,,,,,,,,,,,,,,,,,,,,,,,004,001,2023-11-16_10h59.34.121,ETproject_Chi_2023.1.1,2023.1.1,59.96523215979998,
24,Month,六月,九月 ,,Vert,early,up,image/Chi_early.png,"[0, 0.4]","[0, -0.4]",3,congruent,,,,,,,,,,,,,,0,47,47,33,,,,,,,,,,,,,,,,,,,,,,,,,,,,,,,,,,,,,,,,,,,,,,,,,,,,,383.10297129999526,1.0099923000088893,384.18568299999606,384.1021854000064,384.9855667000011,385.0854254000078,385.0854254000078,385.0854254000078,up,1,1.359620499992161,,,,,,,,,,,,,,,,,,,,,,,,,,,,,,,,,,,,,004,001,2023-11-16_10h59.34.121,ETproject_Chi_2023.1.1,2023.1.1,59.96523215979998,
13,Month,四月,七月,,Hori,late,right,image/Chi_late.png,"[-0.4, 0]","[0.4, 0]",3,congruent,,,,,,,,,,,,,,0,48,48,41,,,,,,,,,,,,,,,,,,,,,,,,,,,,,,,,,,,,,,,,,,,,,,,,,,,,,387.47981810000056,1.0149139999994077,388.56735350000235,388.48432969999703,389.3673382000052,389.46718719999626,389.46718719999626,389.46718719999626,right,1,2.400743899997906,,,,,,,,,,,,,,,,,,,,,,,,,,,,,,,,,,,,,004,001,2023-11-16_10h59.34.121,ETproject_Chi_2023.1.1,2023.1.1,59.96523215979998,
77,Month,九月 ,七月,,Vert,late,up,image/Chi_late.png,"[0, 0.4]","[0, -0.4]",2,incongruent,,,,,,,,,,,,,,0,49,49,43,,,,,,,,,,,,,,,,,,,,,,,,,,,,,,,,,,,,,,,,,,,,,,,,,,,,,391.9022158999942,0.9992676000110805,392.9993691000054,392.91592000000674,393.79905130000407,393.8990277000048,393.8990277000048,393.8990277000048,up,1,1.3063625999930082,,,,,,,,,,,,,,,,,,,,,,,,,,,,,,,,,,,,,004,001,2023-11-16_10h59.34.121,ETproject_Chi_2023.1.1,2023.1.1,59.96523215979998,
,,,,,,,,,,,,,,,,,,,,,,,,,,,,,,,,,,,,,,,,,,,,,,,,,,,,,,,,,,,,,,,,,,,,,,,,,,,,,,,,,,,,,,,,,,,,,395.2323210999966,395.2323210999966,space,12.42876840000099,,,,,,,,,,,,,,,,,,,,,,,,,,,,,,,,,004,001,2023-11-16_10h59.34.121,ETproject_Chi_2023.1.1,2023.1.1,59.96523215979998,
,,,,,,,,,,,,,Spring 3.jpg,这是夏天吗？,否,Right,Break_material/Image/Spring 3.jpg,,,,,,,,,,,,,0,0,0,2,,,,,,,,,,,,,,,,,,,,,,,,,,,,,,,,,,,,,,,,,,,,,,,,,,,,,,,,,,,,,,,,407.9110553999999,411.6638579000064,411.9096894000031,413.67586850000225,413.67586850000225,413.67586850000225,413.67586850000225,left,0,2.0177240000048187,,,,,,,,,,,,,,,,,,,,,,,004,001,2023-11-16_10h59.34.121,ETproject_Chi_2023.1.1,2023.1.1,59.96523215979998,
,,,,,,,,,,,,,Spring 2.jpg,这是冬天吗？,否,Right,Break_material/Image/Spring 2.jpg,,,,,,,,,,,,,0,1,1,1,,,,,,,,,,,,,,,,,,,,,,,,,,,,,,,,,,,,,,,,,,,,,,,,,,,,,,,,,,,,,,,,415.82063150000613,419.7111419000066,419.82381229999737,421.7234125000032,421.7234125000032,421.7234125000032,421.7234125000032,right,0,0.8811844000010751,,,,,,,,,,,,,,,,,,,,,,,004,001,2023-11-16_10h59.34.121,ETproject_Chi_2023.1.1,2023.1.1,59.96523215979998,
,,,,,,,,,,,,,Spring 5.jpg,这是冬天吗？,否,Right,Break_material/Image/Spring 5.jpg,,,,,,,,,,,,,0,2,2,4,,,,,,,,,,,,,,,,,,,,,,,,,,,,,,,,,,,,,,,,,,,,,,,,,,,,,,,,,,,,,,,,423.15415219999704,426.6101516999988,427.154727299996,428.6210204000017,428.6210204000017,428.6210204000017,428.6210204000017,right,0,0.784348899993347,,,,,,,,,,,,,,,,,,,,,,,004,001,2023-11-16_10h59.34.121,ETproject_Chi_2023.1.1,2023.1.1,59.96523215979998,
,,,,,,,,,,,,,Spring 6.jpg,这是春天吗？,是,Left,Break_material/Image/Spring 6.jpg,,,,,,,,,,,,,0,3,3,5,,,,,,,,,,,,,,,,,,,,,,,,,,,,,,,,,,,,,,,,,,,,,,,,,,,,,,,,,,,,,,,,430.29168570000184,433.4237590000048,434.3020991000012,435.43513980000716,435.43513980000716,435.43513980000716,435.43513980000716,left,0,1.08988309999404,,,,,,,,,,,,,,,,,,,,,,,004,001,2023-11-16_10h59.34.121,ETproject_Chi_2023.1.1,2023.1.1,59.96523215979998,
,,,,,,,,,,,,,Spring 4.jpg,这是秋天吗？,否,Right,Break_material/Image/Spring 4.jpg,,,,,,,,,,,,,0,4,4,3,,,,,,,,,,,,,,,,,,,,,,,,,,,,,,,,,,,,,,,,,,,,,,,,,,,,,,,,,,,,,,,,436.99624260000564,440.5376522999941,441.0000271999961,442.5495737999954,442.5495737999954,442.5495737999954,442.5495737999954,right,0,1.7431182000000263,,,,,,,,,,,,,,,,,,,,,,,004,001,2023-11-16_10h59.34.121,ETproject_Chi_2023.1.1,2023.1.1,59.96523215979998,
,,,,,,,,,,,,,Spring 1.jpg,这是春天吗？,是,Left,Break_material/Image/Spring 1.jpg,,,,,,,,,,,,,0,5,5,0,,,,,,,,,,,,,,,,,,,,,,,,,,,,,,,,,,,,,,,,,,,,,,,,,,,,,,,,,,,,,,,,444.4360425999985,448.300751099996,448.44754850000754,450.3135970000076,450.3135970000076,450.3135970000076,450.3135970000076,left,0,0.5864522999909241,,,,,,,,,,,,,,,,,,,,,,,004,001,2023-11-16_10h59.34.121,ETproject_Chi_2023.1.1,2023.1.1,59.96523215979998,
,,,,,,,,,,,,,,,,,,,,,,,,,,,,,,,,,,,,,,,,,,,,,,,,,,,,,,,,,,,,,,,,,,,,,,,,,,,,,,,,,,,,,,,,,,,,,,,,,,,,,,,,,,,450.93011860000115,450.93011860000115,space,5.882453899990651,,,,,,,,,,,,,,,,,,,004,001,2023-11-16_10h59.34.121,ETproject_Chi_2023.1.1,2023.1.1,59.96523215979998,
23,Month,一月,二月 ,,Vert,early,up,image/Chi_early.png,"[0, 0.4]","[0, -0.4]",1,congruent,,,,,,,,,,,,,,,,,,,,,,0,0,0,30,,,,,,,,,,,,,,,,,,,,,,,,,,,,,,,,,,,,,,,,,,,,,456.88724509999884,0.9996086000028299,457.94433740000386,457.8943526000003,458.7442155999961,458.84395109999605,458.84395109999605,458.84395109999605,up,1,1.9211037999921246,,,,,,,,,,,,,,,,,,,,,,,,,,,,,,,,,,,,,004,001,2023-11-16_10h59.34.121,ETproject_Chi_2023.1.1,2023.1.1,59.96523215979998,
39,Month,十一月 ,七月,,Hori,early,right,image/Chi_early.png,"[-0.4, 0]","[0.4, 0]",4,incongruent,,,,,,,,,,,,,,,,,,,,,,0,1,1,40,,,,,,,,,,,,,,,,,,,,,,,,,,,,,,,,,,,,,,,,,,,,,460.80965370000195,1.0116810000035912,461.89303640000435,461.80974839999544,462.69283550000546,462.7928030999974,462.7928030999974,462.7928030999974,right,1,1.3070891999959713,,,,,,,,,,,,,,,,,,,,,,,,,,,,,,,,,,,,,004,001,2023-11-16_10h59.34.121,ETproject_Chi_2023.1.1,2023.1.1,59.96523215979998,
11,Month,十一月 ,十二月,,Hori,early,left,image/Chi_early.png,"[-0.4, 0]","[0.4, 0]",1,congruent,,,,,,,,,,,,,,,,,,,,,,0,2,2,28,,,,,,,,,,,,,,,,,,,,,,,,,,,,,,,,,,,,,,,,,,,,,464.1327953000073,1.011209600008442,465.2254325000031,465.1418579999954,466.02516070000274,466.1251854999937,466.1251854999937,466.1251854999937,left,1,1.2955428999994183,,,,,,,,,,,,,,,,,,,,,,,,,,,,,,,,,,,,,004,001,2023-11-16_10h59.34.121,ETproject_Chi_2023.1.1,2023.1.1,59.96523215979998,
55,Month,四月,一月,,Vert,early,down,image/Chi_early.png,"[0, 0.4]","[0, -0.4]",3,incongruent,,,,,,,,,,,,,,,,,,,,,,0,3,3,22,,,,,,,,,,,,,,,,,,,,,,,,,,,,,,,,,,,,,,,,,,,,,467.4499577000024,1.010802100005094,468.54077070000494,468.45747099999426,469.34052999999403,469.4405895000018,469.4405895000018,469.4405895000018,down,1,1.4757176999992225,,,,,,,,,,,,,,,,,,,,,,,,,,,,,,,,,,,,,004,001,2023-11-16_10h59.34.121,ETproject_Chi_2023.1.1,2023.1.1,59.96523215979998,
114,Week,星期四,星期五,,Vert,early,up,image/Chi_early.png,"[0, 0.4]","[0, -0.4]",1,congruent,,,,,,,,,,,,,,,,,,,,,,0,4,4,10,,,,,,,,,,,,,,,,,,,,,,,,,,,,,,,,,,,,,,,,,,,,,470.9448230000053,1.0147213000018382,472.0397026000064,471.95635349999793,472.8394339000006,472.93961360000685,472.93961360000685,472.93961360000685,up,1,1.2723274000018137,,,,,,,,,,,,,,,,,,,,,,,,,,,,,,,,,,,,,004,001,2023-11-16_10h59.34.121,ETproject_Chi_2023.1.1,2023.1.1,59.96523215979998,
10,Month,二月,六月,,Hori,late,right,image/Chi_late.png,"[-0.4, 0]","[0.4, 0]",4,congruent,,,,,,,,,,,,,,,,,,,,,,0,5,5,37,,,,,,,,,,,,,,,,,,,,,,,,,,,,,,,,,,,,,,,,,,,,,474.2495592999985,1.0155272999982117,475.33865030000015,475.2554658000081,476.13838399999804,476.23830059999455,476.23830059999455,476.23830059999455,right,1,0.9428015999874333,,,,,,,,,,,,,,,,,,,,,,,,,,,,,,,,,,,,,004,001,2023-11-16_10h59.34.121,ETproject_Chi_2023.1.1,2023.1.1,59.96523215979998,
134,Week,星期五,星期三 ,,Hori,late,left,image/Chi_late.png,"[-0.4, 0]","[0.4, 0]",2,incongruent,,,,,,,,,,,,,,,,,,,,,,0,6,6,47,,,,,,,,,,,,,,,,,,,,,,,,,,,,,,,,,,,,,,,,,,,,,477.2150624999995,1.0108910000126343,478.30424600000697,478.2209323000061,479.10403910000605,479.2040224000011,479.2040224000011,479.2040224000011,left,1,1.1199208999896655,,,,,,,,,,,,,,,,,,,,,,,,,,,,,,,,,,,,,004,001,2023-11-16_10h59.34.121,ETproject_Chi_2023.1.1,2023.1.1,59.96523215979998,
14,Month,四月,六月,,Hori,late,right,image/Chi_late.png,"[-0.4, 0]","[0.4, 0]",2,congruent,,,,,,,,,,,,,,,,,,,,,,0,7,7,26,,,,,,,,,,,,,,,,,,,,,,,,,,,,,,,,,,,,,,,,,,,,,480.35965180000494,1.0137826999998651,481.45319839999866,481.36989470000117,482.25297959999443,482.35297770000034,482.35297770000034,482.35297770000034,right,1,2.395809099994949,,,,,,,,,,,,,,,,,,,,,,,,,,,,,,,,,,,,,004,001,2023-11-16_10h59.34.121,ETproject_Chi_2023.1.1,2023.1.1,59.96523215979998,
60,Month,十二月,十月 ,,Hori,late,left,image/Chi_late.png,"[-0.4, 0]","[0.4, 0]",2,incongruent,,,,,,,,,,,,,,,,,,,,,,0,8,8,45,,,,,,,,,,,,,,,,,,,,,,,,,,,,,,,,,,,,,,,,,,,,,484.7784332999945,1.0102372000110336,485.8684681999948,485.78512839999894,486.6683641000054,486.76819989999785,486.76819989999785,486.76819989999785,left,1,0.9160333999898285,,,,,,,,,,,,,,,,,,,,,,,,,,,,,,,,,,,,,004,001,2023-11-16_10h59.34.121,ETproject_Chi_2023.1.1,2023.1.1,59.96523215979998,
42,Month,九月 ,十月 ,,Vert,late,down,image/Chi_late.png,"[0, 0.4]","[0, -0.4]",1,congruent,,,,,,,,,,,,,,,,,,,,,,0,9,9,0,,,,,,,,,,,,,,,,,,,,,,,,,,,,,,,,,,,,,,,,,,,,,487.70753229999536,1.0121020000078715,488.8008762000027,488.7176171999963,489.60054619999573,489.70057950000773,489.70057950000773,489.70057950000773,down,1,1.727781599998707,,,,,,,,,,,,,,,,,,,,,,,,,,,,,,,,,,,,,004,001,2023-11-16_10h59.34.121,ETproject_Chi_2023.1.1,2023.1.1,59.96523215979998,
57,Month,三月,二月,,Hori,late,left,image/Chi_late.png,"[-0.4, 0]","[0.4, 0]",1,incongruent,,,,,,,,,,,,,,,,,,,,,,0,10,10,13,,,,,,,,,,,,,,,,,,,,,,,,,,,,,,,,,,,,,,,,,,,,,491.4554253000024,1.014028799996595,492.5496256999977,492.4663107000015,493.34939199999644,493.44945360000565,493.44945360000565,493.44945360000565,left,1,2.003357800000231,,,,,,,,,,,,,,,,,,,,,,,,,,,,,,,,,,,,,004,001,2023-11-16_10h59.34.121,ETproject_Chi_2023.1.1,2023.1.1,59.96523215979998,
57,Month,六月,三月,,Vert,early,down,image/Chi_early.png,"[0, 0.4]","[0, -0.4]",3,incongruent,,,,,,,,,,,,,,,,,,,,,,0,11,11,4,,,,,,,,,,,,,,,,,,,,,,,,,,,,,,,,,,,,,,,,,,,,,495.49661720000586,1.0122441999992589,496.5817673000056,496.498382400001,497.38132769999356,497.48129390000395,497.48129390000395,497.48129390000395,down,1,1.8266523999918718,,,,,,,,,,,,,,,,,,,,,,,,,,,,,,,,,,,,,004,001,2023-11-16_10h59.34.121,ETproject_Chi_2023.1.1,2023.1.1,59.96523215979998,
84,Month,八月,七月,,Vert,late,up,image/Chi_late.png,"[0, 0.4]","[0, -0.4]",1,incongruent,,,,,,,,,,,,,,,,,,,,,,0,12,12,18,,,,,,,,,,,,,,,,,,,,,,,,,,,,,,,,,,,,,,,,,,,,,499.3383216000002,1.014119399987976,500.4304276999974,500.3469580000019,501.23028939999494,501.33003079999617,501.33003079999617,501.33003079999617,up,1,1.9225052000110736,,,,,,,,,,,,,,,,,,,,,,,,,,,,,,,,,,,,,004,001,2023-11-16_10h59.34.121,ETproject_Chi_2023.1.1,2023.1.1,59.96523215979998,
111,Week,星期一,星期三 ,,Vert,early,up,image/Chi_early.png,"[0, 0.4]","[0, -0.4]",2,congruent,,,,,,,,,,,,,,,,,,,,,,0,13,13,8,,,,,,,,,,,,,,,,,,,,,,,,,,,,,,,,,,,,,,,,,,,,,503.2925746000037,1.0112450000015087,504.3791602000056,504.29597909999575,505.1787567000065,505.278853799995,505.278853799995,505.278853799995,up,1,2.03024049999658,,,,,,,,,,,,,,,,,,,,,,,,,,,,,,,,,,,,,004,001,2023-11-16_10h59.34.121,ETproject_Chi_2023.1.1,2023.1.1,59.96523215979998,
126,Week,星期五,星期二,,Hori,early,right,image/Chi_early.png,"[-0.4, 0]","[0.4, 0]",3,incongruent,,,,,,,,,,,,,,,,,,,,,,0,14,14,17,,,,,,,,,,,,,,,,,,,,,,,,,,,,,,,,,,,,,,,,,,,,,507.333195399995,1.0142532000027131,508.4277116999947,508.34435000000667,509.22758100000647,509.3275849999991,509.3275849999991,509.3275849999991,right,1,1.1969993999955477,,,,,,,,,,,,,,,,,,,,,,,,,,,,,,,,,,,,,004,001,2023-11-16_10h59.34.121,ETproject_Chi_2023.1.1,2023.1.1,59.96523215979998,
43,Month,十月 ,七月,,Hori,early,right,image/Chi_early.png,"[-0.4, 0]","[0.4, 0]",3,incongruent,,,,,,,,,,,,,,,,,,,,,,0,15,15,7,,,,,,,,,,,,,,,,,,,,,,,,,,,,,,,,,,,,,,,,,,,,,510.5494497999971,1.0144688000000315,511.6433307000043,511.5599676000056,512.4430581999986,512.5429843999955,512.5429843999955,512.5429843999955,right,1,1.2847419000027003,,,,,,,,,,,,,,,,,,,,,,,,,,,,,,,,,,,,,004,001,2023-11-16_10h59.34.121,ETproject_Chi_2023.1.1,2023.1.1,59.96523215979998,
126,Week,星期四,星期二,,Hori,early,right,image/Chi_early.png,"[-0.4, 0]","[0.4, 0]",2,incongruent,,,,,,,,,,,,,,,,,,,,,,0,16,16,24,,,,,,,,,,,,,,,,,,,,,,,,,,,,,,,,,,,,,,,,,,,,,513.8676816000007,1.0133454000024358,514.9591066000066,514.8755574000024,515.7586350999991,515.8586166999958,515.8586166999958,515.8586166999958,right,1,0.8744164000090677,,,,,,,,,,,,,,,,,,,,,,,,,,,,,,,,,,,,,004,001,2023-11-16_10h59.34.121,ETproject_Chi_2023.1.1,2023.1.1,59.96523215979998,
72,Month,四月,二月,,Vert,late,up,image/Chi_late.png,"[0, 0.4]","[0, -0.4]",2,incongruent,,,,,,,,,,,,,,,,,,,,,,0,17,17,41,,,,,,,,,,,,,,,,,,,,,,,,,,,,,,,,,,,,,,,,,,,,,516.773806499994,1.0126214000047185,517.8581382000048,517.7745900999944,518.6578073000055,518.7578411000068,518.7578411000068,518.7578411000068,up,1,1.975079599986202,,,,,,,,,,,,,,,,,,,,,,,,,,,,,,,,,,,,,004,001,2023-11-16_10h59.34.121,ETproject_Chi_2023.1.1,2023.1.1,59.96523215979998,
123,Week,星期六,星期日,,Vert,late,down,image/Chi_late.png,"[0, 0.4]","[0, -0.4]",1,congruent,,,,,,,,,,,,,,,,,,,,,,0,18,18,31,,,,,,,,,,,,,,,,,,,,,,,,,,,,,,,,,,,,,,,,,,,,,520.7651754000035,1.0116253000014694,521.8566338000019,521.7732790999944,522.6563607000062,522.7563982000065,522.7563982000065,522.7563982000065,down,1,1.663951199996518,,,,,,,,,,,,,,,,,,,,,,,,,,,,,,,,,,,,,004,001,2023-11-16_10h59.34.121,ETproject_Chi_2023.1.1,2023.1.1,59.96523215979998,
6,Month,六月,九月 ,,Hori,early,left,image/Chi_early.png,"[-0.4, 0]","[0.4, 0]",3,congruent,,,,,,,,,,,,,,,,,,,,,,0,19,19,25,,,,,,,,,,,,,,,,,,,,,,,,,,,,,,,,,,,,,,,,,,,,,524.4545320999969,1.0119609000103083,525.5387119000006,525.4554197000034,526.3385984999986,526.4386611000009,526.4386611000009,526.4386611000009,left,1,1.1665197999973316,,,,,,,,,,,,,,,,,,,,,,,,,,,,,,,,,,,,,004,001,2023-11-16_10h59.34.121,ETproject_Chi_2023.1.1,2023.1.1,59.96523215979998,
2,Month,二月,五月,,Hori,early,left,image/Chi_early.png,"[-0.4, 0]","[0.4, 0]",3,congruent,,,,,,,,,,,,,,,,,,,,,,0,20,20,36,,,,,,,,,,,,,,,,,,,,,,,,,,,,,,,,,,,,,,,,,,,,,527.6472092999975,1.0111507999972673,528.7376207999987,528.6543095000015,529.537619600007,529.6372934000028,529.6372934000028,529.6372934000028,left,1,0.9596344000019599,,,,,,,,,,,,,,,,,,,,,,,,,,,,,,,,,,,,,004,001,2023-11-16_10h59.34.121,ETproject_Chi_2023.1.1,2023.1.1,59.96523215979998,
21,Month,五月,九月 ,,Vert,early,up,image/Chi_early.png,"[0, 0.4]","[0, -0.4]",4,congruent,,,,,,,,,,,,,,,,,,,,,,0,21,21,46,,,,,,,,,,,,,,,,,,,,,,,,,,,,,,,,,,,,,,,,,,,,,530.6288611999989,1.0133160999976099,531.7201576000007,531.6369275999969,532.5197609999959,532.6197648000016,532.6197648000016,532.6197648000016,up,1,1.3200867999985348,,,,,,,,,,,,,,,,,,,,,,,,,,,,,,,,,,,,,004,001,2023-11-16_10h59.34.121,ETproject_Chi_2023.1.1,2023.1.1,59.96523215979998,
25,Month,一月,五月,,Vert,late,down,image/Chi_late.png,"[0, 0.4]","[0, -0.4]",4,congruent,,,,,,,,,,,,,,,,,,,,,,0,22,22,23,,,,,,,,,,,,,,,,,,,,,,,,,,,,,,,,,,,,,,,,,,,,,534.9790945000059,0.999372799997218,536.0687631999972,535.9856248000069,536.8683315000017,536.9683911999964,536.9683911999964,536.9683911999964,down,1,1.1641172999952687,,,,,,,,,,,,,,,,,,,,,,,,,,,,,,,,,,,,,004,001,2023-11-16_10h59.34.121,ETproject_Chi_2023.1.1,2023.1.1,59.96523215979998,
82,Month,六月,五月,,Vert,late,up,image/Chi_late.png,"[0, 0.4]","[0, -0.4]",1,incongruent,,,,,,,,,,,,,,,,,,,,,,0,23,23,33,,,,,,,,,,,,,,,,,,,,,,,,,,,,,,,,,,,,,,,,,,,,,538.1579221000065,1.0119730000005802,539.2510015999942,539.1677701999943,540.0506728999972,540.1505819999948,540.1505819999948,540.1505819999948,up,1,1.309252799997921,,,,,,,,,,,,,,,,,,,,,,,,,,,,,,,,,,,,,004,001,2023-11-16_10h59.34.121,ETproject_Chi_2023.1.1,2023.1.1,59.96523215979998,
1,Month,一月,四月,,Hori,early,left,image/Chi_early.png,"[-0.4, 0]","[0.4, 0]",3,congruent,,,,,,,,,,,,,,,,,,,,,,0,24,24,34,,,,,,,,,,,,,,,,,,,,,,,,,,,,,,,,,,,,,,,,,,,,,541.4992700000075,1.0108634000062011,542.5831050000052,542.4999311000065,543.3828659000064,543.4828462000078,543.4828462000078,543.4828462000078,left,1,0.7140394999878481,,,,,,,,,,,,,,,,,,,,,,,,,,,,,,,,,,,,,004,001,2023-11-16_10h59.34.121,ETproject_Chi_2023.1.1,2023.1.1,59.96523215979998,
53,Month,五月,三月,,Hori,late,left,image/Chi_late.png,"[-0.4, 0]","[0.4, 0]",2,incongruent,,,,,,,,,,,,,,,,,,,,,,0,25,25,2,,,,,,,,,,,,,,,,,,,,,,,,,,,,,,,,,,,,,,,,,,,,,544.2265291000003,1.0152571000071475,545.3156399000072,545.2321884000048,546.1151879000026,546.2152146999942,546.2152146999942,546.2152146999942,left,1,0.9500928999914322,,,,,,,,,,,,,,,,,,,,,,,,,,,,,,,,,,,,,004,001,2023-11-16_10h59.34.121,ETproject_Chi_2023.1.1,2023.1.1,59.96523215979998,
99,Week,星期三 ,星期五,,Hori,early,left,image/Chi_early.png,"[-0.4, 0]","[0.4, 0]",2,congruent,,,,,,,,,,,,,,,,,,,,,,0,26,26,3,,,,,,,,,,,,,,,,,,,,,,,,,,,,,,,,,,,,,,,,,,,,,547.1914195000063,1.0147989000106463,548.2812401000047,548.1978553000008,549.0810662999938,549.1810390999963,549.1810390999963,549.1810390999963,left,1,2.0467421999928774,,,,,,,,,,,,,,,,,,,,,,,,,,,,,,,,,,,,,004,001,2023-11-16_10h59.34.121,ETproject_Chi_2023.1.1,2023.1.1,59.96523215979998,
68,Month,十月 ,八月,,Vert,early,down,image/Chi_early.png,"[0, 0.4]","[0, -0.4]",2,incongruent,,,,,,,,,,,,,,,,,,,,,,0,27,27,48,,,,,,,,,,,,,,,,,,,,,,,,,,,,,,,,,,,,,,,,,,,,,551.2547330000016,1.011364300007699,552.346626999999,552.263263599998,553.1464099000077,553.2465460000021,553.2465460000021,553.2465460000021,down,1,2.790683100000024,,,,,,,,,,,,,,,,,,,,,,,,,,,,,,,,,,,,,004,001,2023-11-16_10h59.34.121,ETproject_Chi_2023.1.1,2023.1.1,59.96523215979998,
142,Week,星期日,星期四,,Vert,early,down,image/Chi_early.png,"[0, 0.4]","[0, -0.4]",3,incongruent,,,,,,,,,,,,,,,,,,,,,,0,28,28,35,,,,,,,,,,,,,,,,,,,,,,,,,,,,,,,,,,,,,,,,,,,,,556.0692373999991,1.0120729000045685,557.1617315999974,557.0783505000072,557.9614125000007,558.0613443999973,558.0613443999973,558.0613443999973,down,1,1.9991623000096297,,,,,,,,,,,,,,,,,,,,,,,,,,,,,,,,,,,,,004,001,2023-11-16_10h59.34.121,ETproject_Chi_2023.1.1,2023.1.1,59.96523215979998,
59,Month,五月,四月,,Hori,late,left,image/Chi_late.png,"[-0.4, 0]","[0.4, 0]",1,incongruent,,,,,,,,,,,,,,,,,,,,,,0,29,29,12,,,,,,,,,,,,,,,,,,,,,,,,,,,,,,,,,,,,,,,,,,,,,561.0886161000017,1.014389999996638,562.1767130000007,562.0933499000021,562.9763068999964,563.0763755000007,563.0763755000007,563.0763755000007,left,1,2.7371931000088807,,,,,,,,,,,,,,,,,,,,,,,,,,,,,,,,,,,,,004,001,2023-11-16_10h59.34.121,ETproject_Chi_2023.1.1,2023.1.1,59.96523215979998,
61,Month,十月 ,七月,,Vert,early,down,image/Chi_early.png,"[0, 0.4]","[0, -0.4]",3,incongruent,,,,,,,,,,,,,,,,,,,,,,0,30,30,16,,,,,,,,,,,,,,,,,,,,,,,,,,,,,,,,,,,,,,,,,,,,,565.8530360000077,1.0119525000045542,566.9417723000006,566.8584168000016,567.7413751000058,567.8415924999936,567.8415924999936,567.8415924999936,down,1,1.1946581000083825,,,,,,,,,,,,,,,,,,,,,,,,,,,,,,,,,,,,,004,001,2023-11-16_10h59.34.121,ETproject_Chi_2023.1.1,2023.1.1,59.96523215979998,
13,Month,二月,三月,,Hori,late,right,image/Chi_late.png,"[-0.4, 0]","[0.4, 0]",1,congruent,,,,,,,,,,,,,,,,,,,,,,0,31,31,42,,,,,,,,,,,,,,,,,,,,,,,,,,,,,,,,,,,,,,,,,,,,,569.0735968000008,1.010595400002785,570.1574168000006,570.0741009999983,570.9572874000078,571.0572165999984,571.0572165999984,571.0572165999984,right,1,1.075640699986252,,,,,,,,,,,,,,,,,,,,,,,,,,,,,,,,,,,,,004,001,2023-11-16_10h59.34.121,ETproject_Chi_2023.1.1,2023.1.1,59.96523215979998,
70,Month,十月 ,七月,,Vert,late,up,image/Chi_late.png,"[0, 0.4]","[0, -0.4]",3,incongruent,,,,,,,,,,,,,,,,,,,,,,0,32,32,19,,,,,,,,,,,,,,,,,,,,,,,,,,,,,,,,,,,,,,,,,,,,,572.1648210000058,1.0119158000015887,573.2563886000062,573.173035199994,574.0562632000001,574.1560506000023,574.1560506000023,574.1560506000023,up,1,1.6409061000013025,,,,,,,,,,,,,,,,,,,,,,,,,,,,,,,,,,,,,004,001,2023-11-16_10h59.34.121,ETproject_Chi_2023.1.1,2023.1.1,59.96523215979998,
21,Month,十月 ,十一月 ,,Hori,late,right,image/Chi_late.png,"[-0.4, 0]","[0.4, 0]",1,congruent,,,,,,,,,,,,,,,,,,,,,,0,33,33,5,,,,,,,,,,,,,,,,,,,,,,,,,,,,,,,,,,,,,,,,,,,,,575.8259563999964,0.9993949999916367,576.9218701999998,576.8384269000017,577.7214576000042,577.821500900005,577.821500900005,577.821500900005,right,1,0.9030335999996169,,,,,,,,,,,,,,,,,,,,,,,,,,,,,,,,,,,,,004,001,2023-11-16_10h59.34.121,ETproject_Chi_2023.1.1,2023.1.1,59.96523215979998,
39,Month,九月 ,十一月 ,,Vert,late,down,image/Chi_late.png,"[0, 0.4]","[0, -0.4]",2,congruent,,,,,,,,,,,,,,,,,,,,,,0,34,34,14,,,,,,,,,,,,,,,,,,,,,,,,,,,,,,,,,,,,,,,,,,,,,578.7580461999969,1.015003099993919,579.8541649000035,579.7710647999993,580.6538203000018,580.7539150000011,580.7539150000011,580.7539150000011,down,1,1.3549811999982921,,,,,,,,,,,,,,,,,,,,,,,,,,,,,,,,,,,,,004,001,2023-11-16_10h59.34.121,ETproject_Chi_2023.1.1,2023.1.1,59.96523215979998,
98,Week,星期二,星期五,,Hori,early,left,image/Chi_early.png,"[-0.4, 0]","[0.4, 0]",3,congruent,,,,,,,,,,,,,,,,,,,,,,0,35,35,39,,,,,,,,,,,,,,,,,,,,,,,,,,,,,,,,,,,,,,,,,,,,,582.1458201999994,0.9990487999893958,583.2364763000005,583.1530129999956,584.0362628999937,584.1361554999967,584.1361554999967,584.1361554999967,left,1,1.0442819999880157,,,,,,,,,,,,,,,,,,,,,,,,,,,,,,,,,,,,,004,001,2023-11-16_10h59.34.121,ETproject_Chi_2023.1.1,2023.1.1,59.96523215979998,
65,Month,七月,五月,,Vert,early,down,image/Chi_early.png,"[0, 0.4]","[0, -0.4]",2,incongruent,,,,,,,,,,,,,,,,,,,,,,0,36,36,11,,,,,,,,,,,,,,,,,,,,,,,,,,,,,,,,,,,,,,,,,,,,,585.211775900003,1.0148608000017703,586.3021033000041,586.2188221000033,587.1017856000035,587.201692900002,587.201692900002,587.201692900002,down,1,1.4344084000040311,,,,,,,,,,,,,,,,,,,,,,,,,,,,,,,,,,,,,004,001,2023-11-16_10h59.34.121,ETproject_Chi_2023.1.1,2023.1.1,59.96523215979998,
16,Month,八月,十二月,,Hori,late,right,image/Chi_late.png,"[-0.4, 0]","[0.4, 0]",4,congruent,,,,,,,,,,,,,,,,,,,,,,0,37,37,27,,,,,,,,,,,,,,,,,,,,,,,,,,,,,,,,,,,,,,,,,,,,,588.6821442,1.0113854000082938,589.7676785000003,589.6841953000039,590.5675027000034,590.6674964000049,590.6674964000049,590.6674964000049,right,1,0.9290328999923076,,,,,,,,,,,,,,,,,,,,,,,,,,,,,,,,,,,,,004,001,2023-11-16_10h59.34.121,ETproject_Chi_2023.1.1,2023.1.1,59.96523215979998,
7,Month,七月,十一月 ,,Hori,early,left,image/Chi_early.png,"[-0.4, 0]","[0.4, 0]",4,congruent,,,,,,,,,,,,,,,,,,,,,,0,38,38,49,,,,,,,,,,,,,,,,,,,,,,,,,,,,,,,,,,,,,,,,,,,,,591.6280536000049,1.015728600003058,592.7166599999982,592.6333025999993,593.5163676000011,593.616463300008,593.616463300008,593.616463300008,left,1,0.7393491999973776,,,,,,,,,,,,,,,,,,,,,,,,,,,,,,,,,,,,,004,001,2023-11-16_10h59.34.121,ETproject_Chi_2023.1.1,2023.1.1,59.96523215979998,
34,Month,四月,六月,,Vert,late,down,image/Chi_late.png,"[0, 0.4]","[0, -0.4]",2,congruent,,,,,,,,,,,,,,,,,,,,,,0,39,39,38,,,,,,,,,,,,,,,,,,,,,,,,,,,,,,,,,,,,,,,,,,,,,594.3938812000051,1.0117003000050317,595.482382299997,595.3991236999937,596.2820506000062,596.3821083000003,596.3821083000003,596.3821083000003,down,1,0.902130100002978,,,,,,,,,,,,,,,,,,,,,,,,,,,,,,,,,,,,,004,001,2023-11-16_10h59.34.121,ETproject_Chi_2023.1.1,2023.1.1,59.96523215979998,
141,Week,星期六,星期三 ,,Vert,early,down,image/Chi_early.png,"[0, 0.4]","[0, -0.4]",3,incongruent,,,,,,,,,,,,,,,,,,,,,,0,40,40,29,,,,,,,,,,,,,,,,,,,,,,,,,,,,,,,,,,,,,,,,,,,,,597.3256796999995,1.0110577000014018,598.4147532999996,598.3313380999971,599.214432300003,599.314484399998,599.314484399998,599.314484399998,down,1,1.2905859999882523,,,,,,,,,,,,,,,,,,,,,,,,,,,,,,,,,,,,,004,001,2023-11-16_10h59.34.121,ETproject_Chi_2023.1.1,2023.1.1,59.96523215979998,
4,Month,四月,六月,,Hori,early,left,image/Chi_early.png,"[-0.4, 0]","[0.4, 0]",2,congruent,,,,,,,,,,,,,,,,,,,,,,0,41,41,20,,,,,,,,,,,,,,,,,,,,,,,,,,,,,,,,,,,,,,,,,,,,,600.6419468000022,1.0106976000097347,601.7302944000039,601.646994600007,602.5300556999937,602.6302560999975,602.6302560999975,602.6302560999975,left,1,1.142588100003195,,,,,,,,,,,,,,,,,,,,,,,,,,,,,,,,,,,,,004,001,2023-11-16_10h59.34.121,ETproject_Chi_2023.1.1,2023.1.1,59.96523215979998,
46,Month,八月,六月,,Hori,early,right,image/Chi_early.png,"[-0.4, 0]","[0.4, 0]",2,incongruent,,,,,,,,,,,,,,,,,,,,,,0,42,42,6,,,,,,,,,,,,,,,,,,,,,,,,,,,,,,,,,,,,,,,,,,,,,603.8026039000033,1.0115876999916509,604.8961825000079,604.8126540000012,605.6957656999948,605.7960429000013,605.7960429000013,605.7960429000013,right,1,0.9919683999905828,,,,,,,,,,,,,,,,,,,,,,,,,,,,,,,,,,,,,004,001,2023-11-16_10h59.34.121,ETproject_Chi_2023.1.1,2023.1.1,59.96523215979998,
108,Week,星期五,星期六,,Hori,late,right,image/Chi_late.png,"[-0.4, 0]","[0.4, 0]",1,congruent,,,,,,,,,,,,,,,,,,,,,,0,43,43,1,,,,,,,,,,,,,,,,,,,,,,,,,,,,,,,,,,,,,,,,,,,,,606.8284077000062,1.0101049000077182,607.9117040000056,607.828359900006,608.7113237999947,608.8114748000007,608.8114748000007,608.8114748000007,right,1,1.4175553999957629,,,,,,,,,,,,,,,,,,,,,,,,,,,,,,,,,,,,,004,001,2023-11-16_10h59.34.121,ETproject_Chi_2023.1.1,2023.1.1,59.96523215979998,
16,Month,七月,十月 ,,Hori,late,right,image/Chi_late.png,"[-0.4, 0]","[0.4, 0]",3,congruent,,,,,,,,,,,,,,,,,,,,,,0,44,44,43,,,,,,,,,,,,,,,,,,,,,,,,,,,,,,,,,,,,,,,,,,,,,610.2671093000026,1.0132715000072494,611.3603421999942,611.2771504000048,612.1601662999965,612.2602381999968,612.2602381999968,612.2602381999968,right,1,1.2962284999957774,,,,,,,,,,,,,,,,,,,,,,,,,,,,,,,,,,,,,004,001,2023-11-16_10h59.34.121,ETproject_Chi_2023.1.1,2023.1.1,59.96523215979998,
26,Month,八月,十一月 ,,Vert,early,up,image/Chi_early.png,"[0, 0.4]","[0, -0.4]",3,congruent,,,,,,,,,,,,,,,,,,,,,,0,45,45,44,,,,,,,,,,,,,,,,,,,,,,,,,,,,,,,,,,,,,,,,,,,,,613.5841374999945,1.0144255999912275,614.676035000004,614.5927886000063,615.4756628999967,615.5757797000042,615.5757797000042,615.5757797000042,up,1,1.324401299993042,,,,,,,,,,,,,,,,,,,,,,,,,,,,,,,,,,,,,004,001,2023-11-16_10h59.34.121,ETproject_Chi_2023.1.1,2023.1.1,59.96523215979998,
18,Month,九月 ,十二月,,Hori,late,right,image/Chi_late.png,"[-0.4, 0]","[0.4, 0]",3,congruent,,,,,,,,,,,,,,,,,,,,,,0,46,46,9,,,,,,,,,,,,,,,,,,,,,,,,,,,,,,,,,,,,,,,,,,,,,616.9338561999975,1.015288700000383,618.0250065000073,617.941611299997,618.8246820999993,618.9247657000014,618.9247657000014,618.9247657000014,right,1,1.4309753999987151,,,,,,,,,,,,,,,,,,,,,,,,,,,,,,,,,,,,,004,001,2023-11-16_10h59.34.121,ETproject_Chi_2023.1.1,2023.1.1,59.96523215979998,
48,Month,十月 ,八月,,Hori,early,right,image/Chi_early.png,"[-0.4, 0]","[0.4, 0]",2,incongruent,,,,,,,,,,,,,,,,,,,,,,0,47,47,32,,,,,,,,,,,,,,,,,,,,,,,,,,,,,,,,,,,,,,,,,,,,,620.3851557999951,1.0107454999961192,621.4736741000015,621.3904189999957,622.2736146000025,622.3736019999997,622.3736019999997,622.3736019999997,right,1,1.7430336999968858,,,,,,,,,,,,,,,,,,,,,,,,,,,,,,,,,,,,,004,001,2023-11-16_10h59.34.121,ETproject_Chi_2023.1.1,2023.1.1,59.96523215979998,
102,Week,星期六,星期日,,Hori,early,left,image/Chi_early.png,"[-0.4, 0]","[0.4, 0]",1,congruent,,,,,,,,,,,,,,,,,,,,,,0,48,48,15,,,,,,,,,,,,,,,,,,,,,,,,,,,,,,,,,,,,,,,,,,,,,624.1524307,1.0113817999954335,625.2394528000077,625.1561150999987,626.0393183000051,626.1390672000052,626.1390672000052,626.1390672000052,left,1,2.400950700000976,,,,,,,,,,,,,,,,,,,,,,,,,,,,,,,,,,,,,004,001,2023-11-16_10h59.34.121,ETproject_Chi_2023.1.1,2023.1.1,59.96523215979998,
29,Month,五月,九月 ,,Vert,late,down,image/Chi_late.png,"[0, 0.4]","[0, -0.4]",4,congruent,,,,,,,,,,,,,,,,,,,,,,0,49,49,21,,,,,,,,,,,,,,,,,,,,,,,,,,,,,,,,,,,,,,,,,,,,,628.5818465999982,1.012030699988827,629.6715839000026,629.5881570999991,630.4711647000004,630.5710789000077,630.5710789000077,630.5710789000077,down,1,2.5528880000056233,,,,,,,,,,,,,,,,,,,,,,,,,,,,,,,,,,,,,004,001,2023-11-16_10h59.34.121,ETproject_Chi_2023.1.1,2023.1.1,59.96523215979998,
,,,,,,,,,,,,,,,,,,,,,,,,,,,,,,,,,,,,,,,,,,,,,,,,,,,,,,,,,,,,,,,,,,,,,,,,,,,,,,,,,,,,,,,,,,,,,,,,,,,,,,,,,,,,,,,633.1538156999959,633.1538156999959,space,11.290765600002487,,,,,,,,,,,,,,,004,001,2023-11-16_10h59.34.121,ETproject_Chi_2023.1.1,2023.1.1,59.96523215979998,
,,,,,,,,,,,,,Spring 4.jpg,这是秋天吗？,否,Right,Break_material/Image/Spring 4.jpg,,,,,,,,,,,,,,,,,,,,,0,0,0,3,,,,,,,,,,,,,,,,,,,,,,,,,,,,,,,,,,,,,,,,,,,,,,,,,,,,,,,,644.7014047000048,648.4527538000038,648.6986295000024,650.4644738999996,650.4644738999996,650.4644738999996,650.4644738999996,right,0,1.7085982999851694,,,,,,,,,,,,,,,,,,,,,,,004,001,2023-11-16_10h59.34.121,ETproject_Chi_2023.1.1,2023.1.1,59.96523215979998,
,,,,,,,,,,,,,Spring 5.jpg,这是冬天吗？,否,Right,Break_material/Image/Spring 5.jpg,,,,,,,,,,,,,,,,,,,,,0,1,1,4,,,,,,,,,,,,,,,,,,,,,,,,,,,,,,,,,,,,,,,,,,,,,,,,,,,,,,,,652.6556605000005,656.1852918000004,656.6625073999967,658.1954026999956,658.1954026999956,658.1954026999956,658.1954026999956,right,0,0.5297361999982968,,,,,,,,,,,,,,,,,,,,,,,004,001,2023-11-16_10h59.34.121,ETproject_Chi_2023.1.1,2023.1.1,59.96523215979998,
,,,,,,,,,,,,,Spring 2.jpg,这是冬天吗？,否,Right,Break_material/Image/Spring 2.jpg,,,,,,,,,,,,,,,,,,,,,0,2,2,1,,,,,,,,,,,,,,,,,,,,,,,,,,,,,,,,,,,,,,,,,,,,,,,,,,,,,,,,658.9791132000028,662.7310426999975,662.9769791000072,664.7428438999996,664.7428438999996,664.7428438999996,664.7428438999996,right,0,1.1737376999953995,,,,,,,,,,,,,,,,,,,,,,,004,001,2023-11-16_10h59.34.121,ETproject_Chi_2023.1.1,2023.1.1,59.96523215979998,
,,,,,,,,,,,,,Spring 3.jpg,这是夏天吗？,否,Right,Break_material/Image/Spring 3.jpg,,,,,,,,,,,,,,,,,,,,,0,3,3,2,,,,,,,,,,,,,,,,,,,,,,,,,,,,,,,,,,,,,,,,,,,,,,,,,,,,,,,,666.0116803000055,669.9282059000034,670.0079334999973,671.9407234000028,671.9407234000028,671.9407234000028,671.9407234000028,left,0,0.6408028000005288,,,,,,,,,,,,,,,,,,,,,,,004,001,2023-11-16_10h59.34.121,ETproject_Chi_2023.1.1,2023.1.1,59.96523215979998,
,,,,,,,,,,,,,Spring 1.jpg,这是春天吗？,是,Left,Break_material/Image/Spring 1.jpg,,,,,,,,,,,,,,,,,,,,,0,4,4,0,,,,,,,,,,,,,,,,,,,,,,,,,,,,,,,,,,,,,,,,,,,,,,,,,,,,,,,,672.6506848000063,676.5924979000047,676.6560367999991,678.605186599998,678.605186599998,678.605186599998,678.605186599998,left,0,1.2799893000046723,,,,,,,,,,,,,,,,,,,,,,,004,001,2023-11-16_10h59.34.121,ETproject_Chi_2023.1.1,2023.1.1,59.96523215979998,
,,,,,,,,,,,,,,,,,,,,,,,,,,,,,,,,,,,,,,,,,,,,,,,,,,,,,,,,,,,,,,,,,,,,,,,,,,,,,,,,,,,,,,,,,,,,,,,,,,,,,,,,,,,,,,,,,,,679.9050324000054,679.9050324000054,space,6.740199199994095,,,,,,,,,,,004,001,2023-11-16_10h59.34.121,ETproject_Chi_2023.1.1,2023.1.1,59.96523215979998,
8,Month,八月,十二月,,Hori,early,left,image/Chi_early.png,"[-0.4, 0]","[0.4, 0]",4,congruent,,,,,,,,,,,,,,,,,,,,,,,,,,,,,,0,0,0,7,,,,,,,,,,,,,,,,,,,,,,,,,,,,,,,,,,,,,686.7293620000055,0.9991841000010027,687.7689843000044,687.7357109000077,688.5686751999965,688.668648800005,688.668648800005,688.668648800005,left,1,1.615482900000643,,,,,,,,,,,,,,,,,,,,,,,,,,,,,,,,,,,,,004,001,2023-11-16_10h59.34.121,ETproject_Chi_2023.1.1,2023.1.1,59.96523215979998,
133,Week,星期五,星期二,,Hori,late,left,image/Chi_late.png,"[-0.4, 0]","[0.4, 0]",3,incongruent,,,,,,,,,,,,,,,,,,,,,,,,,,,,,,0,1,1,49,,,,,,,,,,,,,,,,,,,,,,,,,,,,,,,,,,,,,690.3127445000064,1.0154287999903318,691.401283799998,691.3177485999986,692.2007127000034,692.3007408000049,692.3007408000049,692.3007408000049,left,1,1.2568473999999696,,,,,,,,,,,,,,,,,,,,,,,,,,,,,,,,,,,,,004,001,2023-11-16_10h59.34.121,ETproject_Chi_2023.1.1,2023.1.1,59.96523215979998,
47,Month,九月 ,七月,,Hori,early,right,image/Chi_early.png,"[-0.4, 0]","[0.4, 0]",2,incongruent,,,,,,,,,,,,,,,,,,,,,,,,,,,,,,0,2,2,23,,,,,,,,,,,,,,,,,,,,,,,,,,,,,,,,,,,,,694.5949121999947,1.0146999999997206,695.6829492000033,695.599599000001,696.4827401000002,696.5826078000027,696.5826078000027,696.5826078000027,right,1,1.2143126000009943,,,,,,,,,,,,,,,,,,,,,,,,,,,,,,,,,,,,,004,001,2023-11-16_10h59.34.121,ETproject_Chi_2023.1.1,2023.1.1,59.96523215979998,
107,Week,星期四,星期日,,Hori,late,right,image/Chi_late.png,"[-0.4, 0]","[0.4, 0]",3,congruent,,,,,,,,,,,,,,,,,,,,,,,,,,,,,,0,3,3,34,,,,,,,,,,,,,,,,,,,,,,,,,,,,,,,,,,,,,697.8265781000009,1.0148753999965265,698.9153297999947,698.8318895000048,699.7148931000047,699.8150030000033,699.8150030000033,699.8150030000033,right,1,1.3733036000048742,,,,,,,,,,,,,,,,,,,,,,,,,,,,,,,,,,,,,004,001,2023-11-16_10h59.34.121,ETproject_Chi_2023.1.1,2023.1.1,59.96523215979998,
57,Month,五月,一月,,Vert,late,up,image/Chi_late.png,"[0, 0.4]","[0, -0.4]",4,incongruent,,,,,,,,,,,,,,,,,,,,,,,,,,,,,,0,4,4,25,,,,,,,,,,,,,,,,,,,,,,,,,,,,,,,,,,,,,701.2186950999967,0.9993796000053408,702.3142162999939,702.2308349000014,703.1138028000059,703.2137724999993,703.2137724999993,703.2137724999993,up,1,1.3740719000052195,,,,,,,,,,,,,,,,,,,,,,,,,,,,,,,,,,,,,004,001,2023-11-16_10h59.34.121,ETproject_Chi_2023.1.1,2023.1.1,59.96523215979998,
51,Month,七月,三月,,Vert,early,down,image/Chi_early.png,"[0, 0.4]","[0, -0.4]",4,incongruent,,,,,,,,,,,,,,,,,,,,,,,,,,,,,,0,5,5,12,,,,,,,,,,,,,,,,,,,,,,,,,,,,,,,,,,,,,705.6263822999972,1.0139374999998836,706.7125753000073,706.6292857000008,707.5123304000081,707.612489500003,707.612489500003,707.612489500003,down,1,3.3767006999987643,,,,,,,,,,,,,,,,,,,,,,,,,,,,,,,,,,,,,004,001,2023-11-16_10h59.34.121,ETproject_Chi_2023.1.1,2023.1.1,59.96523215979998,
61,Month,七月,六月,,Hori,late,left,image/Chi_late.png,"[-0.4, 0]","[0.4, 0]",1,incongruent,,,,,,,,,,,,,,,,,,,,,,,,,,,,,,0,6,6,17,,,,,,,,,,,,,,,,,,,,,,,,,,,,,,,,,,,,,711.0209377000065,1.0121464999974705,712.1111487999951,712.0274871000074,712.9104598000049,713.0105559000003,713.0105559000003,713.0105559000003,left,1,1.377288400006364,,,,,,,,,,,,,,,,,,,,,,,,,,,,,,,,,,,,,004,001,2023-11-16_10h59.34.121,ETproject_Chi_2023.1.1,2023.1.1,59.96523215979998,
64,Month,四月,一月,,Vert,late,up,image/Chi_late.png,"[0, 0.4]","[0, -0.4]",3,incongruent,,,,,,,,,,,,,,,,,,,,,,,,,,,,,,0,7,7,24,,,,,,,,,,,,,,,,,,,,,,,,,,,,,,,,,,,,,714.4175667000018,1.0125402999983635,715.509727100005,715.4264578999937,716.3095968000052,716.4095199999938,716.4095199999938,716.4095199999938,up,1,1.8679397999949288,,,,,,,,,,,,,,,,,,,,,,,,,,,,,,,,,,,,,004,001,2023-11-16_10h59.34.121,ETproject_Chi_2023.1.1,2023.1.1,59.96523215979998,
32,Month,五月,八月,,Vert,late,down,image/Chi_late.png,"[0, 0.4]","[0, -0.4]",3,congruent,,,,,,,,,,,,,,,,,,,,,,,,,,,,,,0,8,8,9,,,,,,,,,,,,,,,,,,,,,,,,,,,,,,,,,,,,,718.3158483000079,1.0137530000065453,719.4085706999977,719.3250625000001,720.2082789000051,720.3083096999981,720.3083096999981,720.3083096999981,down,1,1.1923655999853509,,,,,,,,,,,,,,,,,,,,,,,,,,,,,,,,,,,,,004,001,2023-11-16_10h59.34.121,ETproject_Chi_2023.1.1,2023.1.1,59.96523215979998,
42,Month,九月 ,六月,,Hori,early,right,image/Chi_early.png,"[-0.4, 0]","[0.4, 0]",3,incongruent,,,,,,,,,,,,,,,,,,,,,,,,,,,,,,0,9,9,4,,,,,,,,,,,,,,,,,,,,,,,,,,,,,,,,,,,,,721.5341062000007,1.0149801000079606,722.6239813000066,722.5406164999949,723.4239344000016,723.5237632999997,723.5237632999997,723.5237632999997,right,1,2.081179000000702,,,,,,,,,,,,,,,,,,,,,,,,,,,,,,,,,,,,,004,001,2023-11-16_10h59.34.121,ETproject_Chi_2023.1.1,2023.1.1,59.96523215979998,
30,Month,三月,六月,,Vert,late,down,image/Chi_late.png,"[0, 0.4]","[0, -0.4]",3,congruent,,,,,,,,,,,,,,,,,,,,,,,,,,,,,,0,10,10,14,,,,,,,,,,,,,,,,,,,,,,,,,,,,,,,,,,,,,725.6349921000001,1.0101330000034068,726.7226922000045,726.639360299996,727.5223412999985,727.6223315000025,727.6223315000025,727.6223315000025,down,1,2.3973820000101114,,,,,,,,,,,,,,,,,,,,,,,,,,,,,,,,,,,,,004,001,2023-11-16_10h59.34.121,ETproject_Chi_2023.1.1,2023.1.1,59.96523215979998,
33,Month,十一月 ,十二月,,Vert,early,up,image/Chi_early.png,"[0, 0.4]","[0, -0.4]",1,congruent,,,,,,,,,,,,,,,,,,,,,,,,,,,,,,0,11,11,2,,,,,,,,,,,,,,,,,,,,,,,,,,,,,,,,,,,,,730.0496026999972,1.0122014999942621,731.1381464000078,731.0547540000043,731.9376797000077,732.0377298000021,732.0377298000021,732.0377298000021,up,1,3.4629093000112334,,,,,,,,,,,,,,,,,,,,,,,,,,,,,,,,,,,,,004,001,2023-11-16_10h59.34.121,ETproject_Chi_2023.1.1,2023.1.1,59.96523215979998,
106,Week,星期三 ,星期五,,Hori,late,right,image/Chi_late.png,"[-0.4, 0]","[0.4, 0]",2,congruent,,,,,,,,,,,,,,,,,,,,,,,,,,,,,,0,12,12,33,,,,,,,,,,,,,,,,,,,,,,,,,,,,,,,,,,,,,735.5309125999993,1.012367200004519,736.6195980999983,736.536185900004,737.4193791000071,737.5193319000027,737.5193319000027,737.5193319000027,right,1,1.4211369999975432,,,,,,,,,,,,,,,,,,,,,,,,,,,,,,,,,,,,,004,001,2023-11-16_10h59.34.121,ETproject_Chi_2023.1.1,2023.1.1,59.96523215979998,
69,Month,十一月 ,九月 ,,Vert,early,down,image/Chi_early.png,"[0, 0.4]","[0, -0.4]",2,incongruent,,,,,,,,,,,,,,,,,,,,,,,,,,,,,,0,13,13,32,,,,,,,,,,,,,,,,,,,,,,,,,,,,,,,,,,,,,738.9835750999991,1.0113926000049105,740.0684417999946,739.9849057000029,740.8681734000056,740.9681218999976,740.9681218999976,740.9681218999976,down,1,1.0361312000022735,,,,,,,,,,,,,,,,,,,,,,,,,,,,,,,,,,,,,004,001,2023-11-16_10h59.34.121,ETproject_Chi_2023.1.1,2023.1.1,59.96523215979998,
11,Month,一月,三月,,Hori,late,right,image/Chi_late.png,"[-0.4, 0]","[0.4, 0]",2,congruent,,,,,,,,,,,,,,,,,,,,,,,,,,,,,,0,14,14,5,,,,,,,,,,,,,,,,,,,,,,,,,,,,,,,,,,,,,742.0473983000047,1.0145093000028282,743.133929399999,743.0506920999978,743.9337540000051,744.0338579000017,744.0338579000017,744.0338579000017,right,1,1.0915396000054898,,,,,,,,,,,,,,,,,,,,,,,,,,,,,,,,,,,,,004,001,2023-11-16_10h59.34.121,ETproject_Chi_2023.1.1,2023.1.1,59.96523215979998,
46,Month,三月,二月,,Hori,early,right,image/Chi_early.png,"[-0.4, 0]","[0.4, 0]",1,incongruent,,,,,,,,,,,,,,,,,,,,,,,,,,,,,,0,15,15,36,,,,,,,,,,,,,,,,,,,,,,,,,,,,,,,,,,,,,745.1614745000043,1.0119097999995574,746.2496064000079,746.1662240000078,747.0491559000002,747.1494861000028,747.1494861000028,747.1494861000028,right,1,2.5115256999997655,,,,,,,,,,,,,,,,,,,,,,,,,,,,,,,,,,,,,004,001,2023-11-16_10h59.34.121,ETproject_Chi_2023.1.1,2023.1.1,59.96523215979998,
15,Month,七月,十一月 ,,Hori,late,right,image/Chi_late.png,"[-0.4, 0]","[0.4, 0]",4,congruent,,,,,,,,,,,,,,,,,,,,,,,,,,,,,,0,16,16,15,,,,,,,,,,,,,,,,,,,,,,,,,,,,,,,,,,,,,749.6924385999955,1.012162900005933,750.7815250000058,750.698167100003,751.581314300005,751.6812089999949,751.6812089999949,751.6812089999949,right,1,1.5158890999882715,,,,,,,,,,,,,,,,,,,,,,,,,,,,,,,,,,,,,004,001,2023-11-16_10h59.34.121,ETproject_Chi_2023.1.1,2023.1.1,59.96523215979998,
43,Month,七月,三月,,Hori,late,left,image/Chi_late.png,"[-0.4, 0]","[0.4, 0]",4,incongruent,,,,,,,,,,,,,,,,,,,,,,,,,,,,,,0,17,17,39,,,,,,,,,,,,,,,,,,,,,,,,,,,,,,,,,,,,,753.2203171999936,1.0131784999975935,754.3135709999988,754.2302428000039,755.1132741999972,755.2131923000052,755.2131923000052,755.2131923000052,left,1,1.406990000003134,,,,,,,,,,,,,,,,,,,,,,,,,,,,,,,,,,,,,004,001,2023-11-16_10h59.34.121,ETproject_Chi_2023.1.1,2023.1.1,59.96523215979998,
58,Month,十月 ,八月,,Hori,late,left,image/Chi_late.png,"[-0.4, 0]","[0.4, 0]",2,incongruent,,,,,,,,,,,,,,,,,,,,,,,,,,,,,,0,18,18,26,,,,,,,,,,,,,,,,,,,,,,,,,,,,,,,,,,,,,756.6501509000009,1.015638199998648,757.7458876999954,757.6623608000009,758.5455446000051,758.6458194999941,758.6458194999941,758.6458194999941,left,1,1.087037599994801,,,,,,,,,,,,,,,,,,,,,,,,,,,,,,,,,,,,,004,001,2023-11-16_10h59.34.121,ETproject_Chi_2023.1.1,2023.1.1,59.96523215979998,
32,Month,十月 ,十一月 ,,Vert,early,up,image/Chi_early.png,"[0, 0.4]","[0, -0.4]",1,congruent,,,,,,,,,,,,,,,,,,,,,,,,,,,,,,0,19,19,44,,,,,,,,,,,,,,,,,,,,,,,,,,,,,,,,,,,,,759.7714706000042,1.0156714000040665,760.8615470000004,760.7782898000078,761.661222799994,761.7611542000013,761.7611542000013,761.7611542000013,up,1,1.5478912999969907,,,,,,,,,,,,,,,,,,,,,,,,,,,,,,,,,,,,,004,001,2023-11-16_10h59.34.121,ETproject_Chi_2023.1.1,2023.1.1,59.96523215979998,
119,Week,星期二,星期四,,Vert,late,down,image/Chi_late.png,"[0, 0.4]","[0, -0.4]",2,congruent,,,,,,,,,,,,,,,,,,,,,,,,,,,,,,0,20,20,45,,,,,,,,,,,,,,,,,,,,,,,,,,,,,,,,,,,,,764.338316500005,1.0136099999945145,765.4264885999946,765.3433243999971,766.2264703000037,766.326310299999,766.326310299999,766.326310299999,down,1,1.2547724999894854,,,,,,,,,,,,,,,,,,,,,,,,,,,,,,,,,,,,,004,001,2023-11-16_10h59.34.121,ETproject_Chi_2023.1.1,2023.1.1,59.96523215979998,
38,Month,十月 ,六月,,Hori,early,right,image/Chi_early.png,"[-0.4, 0]","[0.4, 0]",4,incongruent,,,,,,,,,,,,,,,,,,,,,,,,,,,,,,0,21,21,18,,,,,,,,,,,,,,,,,,,,,,,,,,,,,,,,,,,,,767.621673900001,1.0146584000030998,768.708887000008,768.6256859000059,769.5086649000077,769.6085151000079,769.6085151000079,769.6085151000079,right,1,1.148653899988858,,,,,,,,,,,,,,,,,,,,,,,,,,,,,,,,,,,,,004,001,2023-11-16_10h59.34.121,ETproject_Chi_2023.1.1,2023.1.1,59.96523215979998,
47,Month,五月,二月,,Hori,late,left,image/Chi_late.png,"[-0.4, 0]","[0.4, 0]",3,incongruent,,,,,,,,,,,,,,,,,,,,,,,,,,,,,,0,22,22,10,,,,,,,,,,,,,,,,,,,,,,,,,,,,,,,,,,,,,770.7864757999996,1.01529070000106,771.8745261999939,771.7911745999954,772.6742780999994,772.7742800000051,772.7742800000051,772.7742800000051,left,1,1.653646699996898,,,,,,,,,,,,,,,,,,,,,,,,,,,,,,,,,,,,,004,001,2023-11-16_10h59.34.121,ETproject_Chi_2023.1.1,2023.1.1,59.96523215979998,
63,Month,十一月 ,七月,,Vert,late,up,image/Chi_late.png,"[0, 0.4]","[0, -0.4]",4,incongruent,,,,,,,,,,,,,,,,,,,,,,,,,,,,,,0,23,23,3,,,,,,,,,,,,,,,,,,,,,,,,,,,,,,,,,,,,,774.4688412000032,1.010804300007294,775.5566954000024,775.473204899994,776.3562822000022,776.4563717000055,776.4563717000055,776.4563717000055,up,1,1.4434053000004496,,,,,,,,,,,,,,,,,,,,,,,,,,,,,,,,,,,,,004,001,2023-11-16_10h59.34.121,ETproject_Chi_2023.1.1,2023.1.1,59.96523215979998,
122,Week,星期五,星期六,,Vert,late,down,image/Chi_late.png,"[0, 0.4]","[0, -0.4]",1,congruent,,,,,,,,,,,,,,,,,,,,,,,,,,,,,,0,24,24,38,,,,,,,,,,,,,,,,,,,,,,,,,,,,,,,,,,,,,778.9278554999983,1.0143630999955349,780.0218410000016,779.938485300001,780.8214803999945,780.9217257000055,780.9217257000055,780.9217257000055,down,1,1.977988299986464,,,,,,,,,,,,,,,,,,,,,,,,,,,,,,,,,,,,,004,001,2023-11-16_10h59.34.121,ETproject_Chi_2023.1.1,2023.1.1,59.96523215979998,
79,Month,十一月 ,九月 ,,Vert,late,up,image/Chi_late.png,"[0, 0.4]","[0, -0.4]",2,incongruent,,,,,,,,,,,,,,,,,,,,,,,,,,,,,,0,25,25,0,,,,,,,,,,,,,,,,,,,,,,,,,,,,,,,,,,,,,782.9325454999998,1.0106210999947507,784.0207103000066,783.9373248999982,784.8201421000049,784.9201155999981,784.9201155999981,784.9201155999981,up,1,1.3325614000059431,,,,,,,,,,,,,,,,,,,,,,,,,,,,,,,,,,,,,004,001,2023-11-16_10h59.34.121,ETproject_Chi_2023.1.1,2023.1.1,59.96523215979998,
3,Month,三月,五月,,Hori,early,left,image/Chi_early.png,"[-0.4, 0]","[0.4, 0]",2,congruent,,,,,,,,,,,,,,,,,,,,,,,,,,,,,,0,26,26,29,,,,,,,,,,,,,,,,,,,,,,,,,,,,,,,,,,,,,786.2830192000038,1.0134570999944117,787.3694776999982,787.2861477000042,788.1690694000063,788.2689461000045,788.2689461000045,788.2689461000045,left,1,1.2560992000071565,,,,,,,,,,,,,,,,,,,,,,,,,,,,,,,,,,,,,004,001,2023-11-16_10h59.34.121,ETproject_Chi_2023.1.1,2023.1.1,59.96523215979998,
52,Month,八月,四月,,Vert,early,down,image/Chi_early.png,"[0, 0.4]","[0, -0.4]",4,incongruent,,,,,,,,,,,,,,,,,,,,,,,,,,,,,,0,27,27,31,,,,,,,,,,,,,,,,,,,,,,,,,,,,,,,,,,,,,789.5598742999937,1.0121587999892654,790.6518031999949,790.5683998999957,791.4514182000057,791.5514604999989,791.5514604999989,791.5514604999989,down,1,2.5329074999899603,,,,,,,,,,,,,,,,,,,,,,,,,,,,,,,,,,,,,004,001,2023-11-16_10h59.34.121,ETproject_Chi_2023.1.1,2023.1.1,59.96523215979998,
128,Week,星期日,星期四,,Hori,early,right,image/Chi_early.png,"[-0.4, 0]","[0.4, 0]",3,incongruent,,,,,,,,,,,,,,,,,,,,,,,,,,,,,,0,28,28,35,,,,,,,,,,,,,,,,,,,,,,,,,,,,,,,,,,,,,794.1263048000037,1.0107848000043305,795.2167875999949,795.1333875000055,796.016661499998,796.1165705999956,796.1165705999956,796.1165705999956,right,1,2.367129999998724,,,,,,,,,,,,,,,,,,,,,,,,,,,,,,,,,,,,,004,001,2023-11-16_10h59.34.121,ETproject_Chi_2023.1.1,2023.1.1,59.96523215979998,
127,Week,星期四,星期三 ,,Hori,early,right,image/Chi_early.png,"[-0.4, 0]","[0.4, 0]",1,incongruent,,,,,,,,,,,,,,,,,,,,,,,,,,,,,,0,29,29,48,,,,,,,,,,,,,,,,,,,,,,,,,,,,,,,,,,,,,799.5217641999989,1.0150534999993397,800.6150997000004,800.5318101999947,801.4147295000075,801.5148606999937,801.5148606999937,801.5148606999937,right,1,2.9208540999970865,,,,,,,,,,,,,,,,,,,,,,,,,,,,,,,,,,,,,004,001,2023-11-16_10h59.34.121,ETproject_Chi_2023.1.1,2023.1.1,59.96523215979998,
52,Month,十月 ,七月,,Hori,late,left,image/Chi_late.png,"[-0.4, 0]","[0.4, 0]",3,incongruent,,,,,,,,,,,,,,,,,,,,,,,,,,,,,,0,30,30,41,,,,,,,,,,,,,,,,,,,,,,,,,,,,,,,,,,,,,804.4810465999981,1.0112850000004983,805.563424400003,805.4802219000048,806.3631978999983,806.4630479999978,806.4630479999978,806.4630479999978,left,1,3.317555000001448,,,,,,,,,,,,,,,,,,,,,,,,,,,,,,,,,,,,,004,001,2023-11-16_10h59.34.121,ETproject_Chi_2023.1.1,2023.1.1,59.96523215979998,
31,Month,七月,十一月 ,,Vert,late,down,image/Chi_late.png,"[0, 0.4]","[0, -0.4]",4,congruent,,,,,,,,,,,,,,,,,,,,,,,,,,,,,,0,31,31,6,,,,,,,,,,,,,,,,,,,,,,,,,,,,,,,,,,,,,810.8171545000005,1.0150928999937605,811.9113867000051,811.8279841999974,812.7108307999952,812.8110380000071,812.8110380000071,812.8110380000071,down,1,1.2419001999951433,,,,,,,,,,,,,,,,,,,,,,,,,,,,,,,,,,,,,004,001,2023-11-16_10h59.34.121,ETproject_Chi_2023.1.1,2023.1.1,59.96523215979998,
107,Week,星期四,星期五,,Hori,late,right,image/Chi_late.png,"[-0.4, 0]","[0.4, 0]",1,congruent,,,,,,,,,,,,,,,,,,,,,,,,,,,,,,0,32,32,19,,,,,,,,,,,,,,,,,,,,,,,,,,,,,,,,,,,,,815.0834879999966,1.0145721000008052,816.1766797999953,816.0932615999991,816.9762224000078,817.0762923000075,817.0762923000075,817.0762923000075,right,1,0.9916288999957033,,,,,,,,,,,,,,,,,,,,,,,,,,,,,,,,,,,,,004,001,2023-11-16_10h59.34.121,ETproject_Chi_2023.1.1,2023.1.1,59.96523215979998,
43,Month,五月,三月,,Hori,early,right,image/Chi_early.png,"[-0.4, 0]","[0.4, 0]",2,incongruent,,,,,,,,,,,,,,,,,,,,,,,,,,,,,,0,33,33,16,,,,,,,,,,,,,,,,,,,,,,,,,,,,,,,,,,,,,818.1096595000054,1.0117017000011401,819.1923247000013,819.1088737000027,819.9919084000067,820.0918230000025,820.0918230000025,820.0918230000025,right,1,2.0171857999957865,,,,,,,,,,,,,,,,,,,,,,,,,,,,,,,,,,,,,004,001,2023-11-16_10h59.34.121,ETproject_Chi_2023.1.1,2023.1.1,59.96523215979998,
68,Month,三月,二月,,Vert,early,down,image/Chi_early.png,"[0, 0.4]","[0, -0.4]",1,incongruent,,,,,,,,,,,,,,,,,,,,,,,,,,,,,,0,34,34,46,,,,,,,,,,,,,,,,,,,,,,,,,,,,,,,,,,,,,822.149431100006,1.0114869000099134,823.2409364999985,823.1575965000011,824.0405002999978,824.1405684999991,824.1405684999991,824.1405684999991,down,1,2.399916199996369,,,,,,,,,,,,,,,,,,,,,,,,,,,,,,,,,,,,,004,001,2023-11-16_10h59.34.121,ETproject_Chi_2023.1.1,2023.1.1,59.96523215979998,
36,Month,八月,四月,,Hori,early,right,image/Chi_early.png,"[-0.4, 0]","[0.4, 0]",4,incongruent,,,,,,,,,,,,,,,,,,,,,,,,,,,,,,0,35,35,27,,,,,,,,,,,,,,,,,,,,,,,,,,,,,,,,,,,,,826.5785952000078,1.01541520000319,827.672834799996,827.5893701999958,828.4725708999977,828.5725058000025,828.5725058000025,828.5725058000025,right,1,1.615883299993584,,,,,,,,,,,,,,,,,,,,,,,,,,,,,,,,,,,,,004,001,2023-11-16_10h59.34.121,ETproject_Chi_2023.1.1,2023.1.1,59.96523215979998,
12,Month,二月,四月,,Hori,late,right,image/Chi_late.png,"[-0.4, 0]","[0.4, 0]",2,congruent,,,,,,,,,,,,,,,,,,,,,,,,,,,,,,0,36,36,21,,,,,,,,,,,,,,,,,,,,,,,,,,,,,,,,,,,,,830.2158931999948,1.011902900005225,831.3049166000055,831.2216891000062,832.1046508000072,832.2047778000051,832.2047778000051,832.2047778000051,right,1,1.5765073999937158,,,,,,,,,,,,,,,,,,,,,,,,,,,,,,,,,,,,,004,001,2023-11-16_10h59.34.121,ETproject_Chi_2023.1.1,2023.1.1,59.96523215979998,
38,Month,五月,六月,,Vert,late,down,image/Chi_late.png,"[0, 0.4]","[0, -0.4]",1,congruent,,,,,,,,,,,,,,,,,,,,,,,,,,,,,,0,37,37,20,,,,,,,,,,,,,,,,,,,,,,,,,,,,,,,,,,,,,833.8135049000048,1.0111660999973537,834.9037487999958,834.8203979000027,835.7035342999952,835.8033517000076,835.8033517000076,835.8033517000076,down,1,1.3138293999945745,,,,,,,,,,,,,,,,,,,,,,,,,,,,,,,,,,,,,004,001,2023-11-16_10h59.34.121,ETproject_Chi_2023.1.1,2023.1.1,59.96523215979998,
47,Month,十一月 ,七月,,Hori,late,left,image/Chi_late.png,"[-0.4, 0]","[0.4, 0]",4,incongruent,,,,,,,,,,,,,,,,,,,,,,,,,,,,,,0,38,38,37,,,,,,,,,,,,,,,,,,,,,,,,,,,,,,,,,,,,,837.1466217000052,1.0104720999952406,838.2359664000032,838.1526860999948,839.0356619000013,839.1358152999965,839.1358152999965,839.1358152999965,left,1,1.2046418999962043,,,,,,,,,,,,,,,,,,,,,,,,,,,,,,,,,,,,,004,001,2023-11-16_10h59.34.121,ETproject_Chi_2023.1.1,2023.1.1,59.96523215979998,
9,Month,九月 ,十月 ,,Hori,early,left,image/Chi_early.png,"[-0.4, 0]","[0.4, 0]",1,congruent,,,,,,,,,,,,,,,,,,,,,,,,,,,,,,0,39,39,47,,,,,,,,,,,,,,,,,,,,,,,,,,,,,,,,,,,,,840.3829575000054,1.0133615999948233,841.4683071999971,841.3848662000019,842.2679921000017,842.3680556999971,842.3680556999971,842.3680556999971,left,1,1.6362419000070076,,,,,,,,,,,,,,,,,,,,,,,,,,,,,,,,,,,,,004,001,2023-11-16_10h59.34.121,ETproject_Chi_2023.1.1,2023.1.1,59.96523215979998,
143,Week,星期日,星期五,,Vert,early,down,image/Chi_early.png,"[0, 0.4]","[0, -0.4]",2,incongruent,,,,,,,,,,,,,,,,,,,,,,,,,,,,,,0,40,40,22,,,,,,,,,,,,,,,,,,,,,,,,,,,,,,,,,,,,,844.0444137999948,1.0121463000104995,845.133914099999,845.0503504000008,845.9333989000079,846.0335700000069,846.0335700000069,846.0335700000069,down,1,2.339591800002381,,,,,,,,,,,,,,,,,,,,,,,,,,,,,,,,,,,,,004,001,2023-11-16_10h59.34.121,ETproject_Chi_2023.1.1,2023.1.1,59.96523215979998,
50,Month,六月,二月,,Vert,early,down,image/Chi_early.png,"[0, 0.4]","[0, -0.4]",4,incongruent,,,,,,,,,,,,,,,,,,,,,,,,,,,,,,0,41,41,30,,,,,,,,,,,,,,,,,,,,,,,,,,,,,,,,,,,,,848.4068977000061,1.0124877000052948,849.498946700005,849.4155641000034,850.298617600005,850.3987600000037,850.3987600000037,850.3987600000037,down,1,1.3331974000029732,,,,,,,,,,,,,,,,,,,,,,,,,,,,,,,,,,,,,004,001,2023-11-16_10h59.34.121,ETproject_Chi_2023.1.1,2023.1.1,59.96523215979998,
55,Month,七月,五月,,Hori,late,left,image/Chi_late.png,"[-0.4, 0]","[0.4, 0]",2,incongruent,,,,,,,,,,,,,,,,,,,,,,,,,,,,,,0,42,42,11,,,,,,,,,,,,,,,,,,,,,,,,,,,,,,,,,,,,,851.7599692000003,1.0147548999957507,852.847712099996,852.7645359999951,853.6475735000058,853.7474984000073,853.7474984000073,853.7474984000073,left,1,2.16102200000023,,,,,,,,,,,,,,,,,,,,,,,,,,,,,,,,,,,,,004,001,2023-11-16_10h59.34.121,ETproject_Chi_2023.1.1,2023.1.1,59.96523215979998,
122,Week,星期五,星期日,,Vert,late,down,image/Chi_late.png,"[0, 0.4]","[0, -0.4]",2,congruent,,,,,,,,,,,,,,,,,,,,,,,,,,,,,,0,43,43,40,,,,,,,,,,,,,,,,,,,,,,,,,,,,,,,,,,,,,855.9401119000031,1.0107507000066107,857.0297031000009,856.9465740999949,857.8295971999978,857.9298634999941,857.9298634999941,857.9298634999941,down,1,1.6019968999898992,,,,,,,,,,,,,,,,,,,,,,,,,,,,,,,,,,,,,004,001,2023-11-16_10h59.34.121,ETproject_Chi_2023.1.1,2023.1.1,59.96523215979998,
50,Month,七月,六月,,Hori,early,right,image/Chi_early.png,"[-0.4, 0]","[0.4, 0]",1,incongruent,,,,,,,,,,,,,,,,,,,,,,,,,,,,,,0,44,44,28,,,,,,,,,,,,,,,,,,,,,,,,,,,,,,,,,,,,,859.5698025999955,1.0154167000000598,860.6619455999971,860.5785542000012,861.4616850999955,861.5616388999988,861.5616388999988,861.5616388999988,right,1,1.1154399999941234,,,,,,,,,,,,,,,,,,,,,,,,,,,,,,,,,,,,,004,001,2023-11-16_10h59.34.121,ETproject_Chi_2023.1.1,2023.1.1,59.96523215979998,
149,Week,星期五,星期四,,Vert,late,up,image/Chi_late.png,"[0, 0.4]","[0, -0.4]",1,incongruent,,,,,,,,,,,,,,,,,,,,,,,,,,,,,,0,45,45,8,,,,,,,,,,,,,,,,,,,,,,,,,,,,,,,,,,,,,862.7041866,1.0147124000068288,863.7941766999938,863.7108559999979,864.5938679000028,864.694035200002,864.694035200002,864.694035200002,up,1,1.1657271000003675,,,,,,,,,,,,,,,,,,,,,,,,,,,,,,,,,,,,,004,001,2023-11-16_10h59.34.121,ETproject_Chi_2023.1.1,2023.1.1,59.96523215979998,
136,Week,星期六,星期五,,Hori,late,left,image/Chi_late.png,"[-0.4, 0]","[0.4, 0]",1,incongruent,,,,,,,,,,,,,,,,,,,,,,,,,,,,,,0,46,46,13,,,,,,,,,,,,,,,,,,,,,,,,,,,,,,,,,,,,,865.8828953999982,1.0141120000043884,866.9763695000074,866.8931671999962,867.7761086000028,867.8762539999952,867.8762539999952,867.8762539999952,left,1,1.168250300004729,,,,,,,,,,,,,,,,,,,,,,,,,,,,,,,,,,,,,004,001,2023-11-16_10h59.34.121,ETproject_Chi_2023.1.1,2023.1.1,59.96523215979998,
105,Week,星期二,星期五,,Hori,late,right,image/Chi_late.png,"[-0.4, 0]","[0.4, 0]",3,congruent,,,,,,,,,,,,,,,,,,,,,,,,,,,,,,0,47,47,42,,,,,,,,,,,,,,,,,,,,,,,,,,,,,,,,,,,,,869.078645499998,0.9991750999906799,870.1754383000007,870.0921137000041,870.9753171999982,871.0751658000008,871.0751658000008,871.0751658000008,right,1,1.305423099998734,,,,,,,,,,,,,,,,,,,,,,,,,,,,,,,,,,,,,004,001,2023-11-16_10h59.34.121,ETproject_Chi_2023.1.1,2023.1.1,59.96523215979998,
118,Week,星期一,星期三 ,,Vert,late,down,image/Chi_late.png,"[0, 0.4]","[0, -0.4]",2,congruent,,,,,,,,,,,,,,,,,,,,,,,,,,,,,,0,48,48,43,,,,,,,,,,,,,,,,,,,,,,,,,,,,,,,,,,,,,872.4168005000029,1.01155270000163,873.5076594000057,873.4244179000016,874.3075326000035,874.4074121999947,874.4074121999947,874.4074121999947,down,1,1.278342799996608,,,,,,,,,,,,,,,,,,,,,,,,,,,,,,,,,,,,,004,001,2023-11-16_10h59.34.121,ETproject_Chi_2023.1.1,2023.1.1,59.96523215979998,
76,Month,十一月 ,十月 ,,Vert,early,down,image/Chi_early.png,"[0, 0.4]","[0, -0.4]",1,incongruent,,,,,,,,,,,,,,,,,,,,,,,,,,,,,,0,49,49,1,,,,,,,,,,,,,,,,,,,,,,,,,,,,,,,,,,,,,876.715174200006,1.0149560999998357,877.8064643000034,877.722886399999,878.6061706999972,878.7059933000055,878.7059933000055,878.7059933000055,down,1,3.594886699997005,,,,,,,,,,,,,,,,,,,,,,,,,,,,,,,,,,,,,004,001,2023-11-16_10h59.34.121,ETproject_Chi_2023.1.1,2023.1.1,59.96523215979998,
,,,,,,,,,,,,,,,,,,,,,,,,,,,,,,,,,,,,,,,,,,,,,,,,,,,,,,,,,,,,,,,,,,,,,,,,,,,,,,,,,,,,,,,,,,,,,,,,,,,,,,,,,,,,,,,,,,,,,,,883.3113872000031,883.3113872000031,space,2.7183227999921655,,,,,,,004,001,2023-11-16_10h59.34.121,ETproject_Chi_2023.1.1,2023.1.1,59.96523215979998,
,,,,,,,,,,,,,Spring 5.jpg,这是冬天吗？,否,Right,Break_material/Image/Spring 5.jpg,,,,,,,,,,,,,,,,,,,,,,,,,,,,,0,0,0,4,,,,,,,,,,,,,,,,,,,,,,,,,,,,,,,,,,,,,,,,,,,,,,,,886.5149429999947,890.0403819999992,890.5186881000045,892.0516636000029,892.0516636000029,892.0516636000029,892.0516636000029,right,0,0.76882110000588,,,,,,,,,,,,,,,,,,,,,,,004,001,2023-11-16_10h59.34.121,ETproject_Chi_2023.1.1,2023.1.1,59.96523215979998,
,,,,,,,,,,,,,Spring 4.jpg,这是秋天吗？,否,Right,Break_material/Image/Spring 4.jpg,,,,,,,,,,,,,,,,,,,,,,,,,,,,,0,1,1,3,,,,,,,,,,,,,,,,,,,,,,,,,,,,,,,,,,,,,,,,,,,,,,,,893.215795300006,896.8371370000023,897.2162451999975,898.849189099994,898.849189099994,898.849189099994,898.849189099994,right,0,2.1071564000012586,,,,,,,,,,,,,,,,,,,,,,,004,001,2023-11-16_10h59.34.121,ETproject_Chi_2023.1.1,2023.1.1,59.96523215979998,
,,,,,,,,,,,,,Spring 2.jpg,这是冬天吗？,否,Right,Break_material/Image/Spring 2.jpg,,,,,,,,,,,,,,,,,,,,,,,,,,,,,0,2,2,1,,,,,,,,,,,,,,,,,,,,,,,,,,,,,,,,,,,,,,,,,,,,,,,,901.0572947999972,904.9670351000022,905.0637841000062,906.9796852000072,906.9796852000072,906.9796852000072,906.9796852000072,right,0,0.7768898999929661,,,,,,,,,,,,,,,,,,,,,,,004,001,2023-11-16_10h59.34.121,ETproject_Chi_2023.1.1,2023.1.1,59.96523215979998,
,,,,,,,,,,,,,Spring 1.jpg,这是春天吗？,是,Left,Break_material/Image/Spring 1.jpg,,,,,,,,,,,,,,,,,,,,,,,,,,,,,0,3,3,0,,,,,,,,,,,,,,,,,,,,,,,,,,,,,,,,,,,,,,,,,,,,,,,,907.8351367000068,911.7654339000073,911.8452745000031,913.7778273999938,913.7778273999938,913.7778273999938,913.7778273999938,left,0,1.1870396000012988,,,,,,,,,,,,,,,,,,,,,,,004,001,2023-11-16_10h59.34.121,ETproject_Chi_2023.1.1,2023.1.1,59.96523215979998,
,,,,,,,,,,,,,Spring 3.jpg,这是夏天吗？,否,Right,Break_material/Image/Spring 3.jpg,,,,,,,,,,,,,,,,,,,,,,,,,,,,,0,4,4,2,,,,,,,,,,,,,,,,,,,,,,,,,,,,,,,,,,,,,,,,,,,,,,,,915.0498090999972,918.9797482000067,919.0593471999964,920.9920626000021,920.9920626000021,920.9920626000021,920.9920626000021,left,0,1.5637595000007423,,,,,,,,,,,,,,,,,,,,,,,004,001,2023-11-16_10h59.34.121,ETproject_Chi_2023.1.1,2023.1.1,59.96523215979998,
,,,,,,,,,,,,,,,,,,,,,,,,,,,,,,,,,,,,,,,,,,,,,,,,,,,,,,,,,,,,,,,,,,,,,,,,,,,,,,,,,,,,,,,,,,,,,,,,,,,,,,,,,,,,,,,,,,,,,,,,,,,922.5748972999936,922.5748972999936,space,1.7341853000107221,,,004,001,2023-11-16_10h59.34.121,ETproject_Chi_2023.1.1,2023.1.1,59.96523215979998,
114,Week,星期四,星期六,,Vert,early,up,image/Chi_early.png,"[0, 0.4]","[0, -0.4]",2,congruent,,,,,,,,,,,,,,,,,,,,,,,,,,,,,,,,,,,,,,0,0,0,1,,,,,,,,,,,,,,,,,,,,,,,,,,,,,924.3678045000051,0.999557699993602,925.4406320000053,925.3741058999949,926.2402369999982,926.3403930999993,926.3403930999993,926.3403930999993,up,1,1.1448696000006748,,,,,,,,,,,,,,,,,,,,,,,,,,,,,,,,,,,,,004,001,2023-11-16_10h59.34.121,ETproject_Chi_2023.1.1,2023.1.1,59.96523215979998,
29,Month,二月,五月,,Vert,late,down,image/Chi_late.png,"[0, 0.4]","[0, -0.4]",3,congruent,,,,,,,,,,,,,,,,,,,,,,,,,,,,,,,,,,,,,,0,1,1,14,,,,,,,,,,,,,,,,,,,,,,,,,,,,,927.5222132999988,1.0117880000034347,928.6063307999939,928.5230245000057,929.4059408999965,929.505977300003,929.505977300003,929.505977300003,down,1,0.9717023999983212,,,,,,,,,,,,,,,,,,,,,,,,,,,,,,,,,,,,,004,001,2023-11-16_10h59.34.121,ETproject_Chi_2023.1.1,2023.1.1,59.96523215979998,
74,Month,九月 ,八月,,Vert,early,down,image/Chi_early.png,"[0, 0.4]","[0, -0.4]",1,incongruent,,,,,,,,,,,,,,,,,,,,,,,,,,,,,,,,,,,,,,0,2,2,38,,,,,,,,,,,,,,,,,,,,,,,,,,,,,931.5154906000025,1.0153645000100369,932.6048614999963,932.5218032000048,933.4045091999942,933.5048438000013,933.5048438000013,933.5048438000013,down,1,2.235358100006124,,,,,,,,,,,,,,,,,,,,,,,,,,,,,,,,,,,,,004,001,2023-11-16_10h59.34.121,ETproject_Chi_2023.1.1,2023.1.1,59.96523215979998,
16,Month,五月,六月,,Hori,late,right,image/Chi_late.png,"[-0.4, 0]","[0.4, 0]",1,congruent,,,,,,,,,,,,,,,,,,,,,,,,,,,,,,,,,,,,,,0,3,3,32,,,,,,,,,,,,,,,,,,,,,,,,,,,,,935.7776111000057,0.9990247999958228,936.8701250999948,936.7869301999963,937.6699020000015,937.7698870999957,937.7698870999957,937.7698870999957,right,1,1.0751775999960955,,,,,,,,,,,,,,,,,,,,,,,,,,,,,,,,,,,,,004,001,2023-11-16_10h59.34.121,ETproject_Chi_2023.1.1,2023.1.1,59.96523215979998,
20,Month,十月 ,十二月,,Hori,late,right,image/Chi_late.png,"[-0.4, 0]","[0.4, 0]",2,congruent,,,,,,,,,,,,,,,,,,,,,,,,,,,,,,,,,,,,,,0,4,4,24,,,,,,,,,,,,,,,,,,,,,,,,,,,,,938.8756030000004,1.0145909999992,939.9691716000016,939.8857371999984,940.7688689999995,940.868796200004,940.868796200004,940.868796200004,right,1,1.2484900999988895,,,,,,,,,,,,,,,,,,,,,,,,,,,,,,,,,,,,,004,001,2023-11-16_10h59.34.121,ETproject_Chi_2023.1.1,2023.1.1,59.96523215979998,
112,Week,星期二,星期四,,Vert,early,up,image/Chi_early.png,"[0, 0.4]","[0, -0.4]",2,congruent,,,,,,,,,,,,,,,,,,,,,,,,,,,,,,,,,,,,,,0,5,5,41,,,,,,,,,,,,,,,,,,,,,,,,,,,,,942.146418700002,1.0150633000012022,943.2347573999941,943.1513949,944.0344113999963,944.1343967000066,944.1343967000066,944.1343967000066,up,1,1.2224894999962999,,,,,,,,,,,,,,,,,,,,,,,,,,,,,,,,,,,,,004,001,2023-11-16_10h59.34.121,ETproject_Chi_2023.1.1,2023.1.1,59.96523215979998,
73,Month,八月,七月,,Vert,early,down,image/Chi_early.png,"[0, 0.4]","[0, -0.4]",1,incongruent,,,,,,,,,,,,,,,,,,,,,,,,,,,,,,,,,,,,,,0,6,6,29,,,,,,,,,,,,,,,,,,,,,,,,,,,,,946.3919567000048,1.014638599997852,947.483338900005,947.399857999997,948.2830916000021,948.3831200000059,948.3831200000059,948.3831200000059,down,1,1.062203599998611,,,,,,,,,,,,,,,,,,,,,,,,,,,,,,,,,,,,,004,001,2023-11-16_10h59.34.121,ETproject_Chi_2023.1.1,2023.1.1,59.96523215979998,
139,Week,星期三 ,星期一,,Vert,early,down,image/Chi_early.png,"[0, 0.4]","[0, -0.4]",2,incongruent,,,,,,,,,,,,,,,,,,,,,,,,,,,,,,,,,,,,,,0,7,7,13,,,,,,,,,,,,,,,,,,,,,,,,,,,,,949.4744908000066,1.0129323000001023,950.5658046999961,950.4822161999982,951.3654640999957,951.4654143000007,951.4654143000007,951.4654143000007,down,1,1.0511727000121027,,,,,,,,,,,,,,,,,,,,,,,,,,,,,,,,,,,,,004,001,2023-11-16_10h59.34.121,ETproject_Chi_2023.1.1,2023.1.1,59.96523215979998,
28,Month,一月,四月,,Vert,late,down,image/Chi_late.png,"[0, 0.4]","[0, -0.4]",3,congruent,,,,,,,,,,,,,,,,,,,,,,,,,,,,,,,,,,,,,,0,8,8,9,,,,,,,,,,,,,,,,,,,,,,,,,,,,,952.5600368999949,1.0121398999908706,953.6478971999968,953.5645500000028,954.4477759999936,954.5476258000053,954.5476258000053,954.5476258000053,down,1,1.832812799999374,,,,,,,,,,,,,,,,,,,,,,,,,,,,,,,,,,,,,004,001,2023-11-16_10h59.34.121,ETproject_Chi_2023.1.1,2023.1.1,59.96523215979998,
133,Week,星期三 ,星期二,,Hori,late,left,image/Chi_late.png,"[-0.4, 0]","[0.4, 0]",1,incongruent,,,,,,,,,,,,,,,,,,,,,,,,,,,,,,,,,,,,,,0,9,9,30,,,,,,,,,,,,,,,,,,,,,,,,,,,,,956.4061104000066,1.0113251000002492,957.4966328999944,957.4132561000079,958.2963941999988,958.3964101999954,958.3964101999954,958.3964101999954,left,1,1.1353558999981033,,,,,,,,,,,,,,,,,,,,,,,,,,,,,,,,,,,,,004,001,2023-11-16_10h59.34.121,ETproject_Chi_2023.1.1,2023.1.1,59.96523215979998,
132,Week,星期三 ,星期一,,Hori,late,left,image/Chi_late.png,"[-0.4, 0]","[0.4, 0]",2,incongruent,,,,,,,,,,,,,,,,,,,,,,,,,,,,,,,,,,,,,,0,10,10,2,,,,,,,,,,,,,,,,,,,,,,,,,,,,,959.5668947000013,1.0151897000032477,960.6623516000036,960.5791125000032,961.4621416999944,961.5620438999977,961.5620438999977,961.5620438999977,left,1,0.7300024999858579,,,,,,,,,,,,,,,,,,,,,,,,,,,,,,,,,,,,,004,001,2023-11-16_10h59.34.121,ETproject_Chi_2023.1.1,2023.1.1,59.96523215979998,
141,Week,星期四,星期三 ,,Vert,early,down,image/Chi_early.png,"[0, 0.4]","[0, -0.4]",1,incongruent,,,,,,,,,,,,,,,,,,,,,,,,,,,,,,,,,,,,,,0,11,11,7,,,,,,,,,,,,,,,,,,,,,,,,,,,,,962.3241438000041,1.0123662000114564,963.4114482000077,963.3280949999971,964.2112360999963,964.3112028999967,964.3112028999967,964.3112028999967,down,1,1.4460275000019465,,,,,,,,,,,,,,,,,,,,,,,,,,,,,,,,,,,,,004,001,2023-11-16_10h59.34.121,ETproject_Chi_2023.1.1,2023.1.1,59.96523215979998,
152,Week,星期一,星期二,,Vert,late,up,image/Chi_late.png,"[0, 0.4]","[0, -0.4]",1,incongruent,,,,,,,,,,,,,,,,,,,,,,,,,,,,,,,,,,,,,,0,12,12,45,,,,,,,,,,,,,,,,,,,,,,,,,,,,,965.787227300003,1.0140051999915158,966.8770236000055,966.7936415000077,967.6766972999976,967.7767329999988,967.7767329999988,967.7767329999988,down,0,0.9804631000006339,,,,,,,,,,,,,,,,,,,,,,,,,,,,,,,,,,,,,004,001,2023-11-16_10h59.34.121,ETproject_Chi_2023.1.1,2023.1.1,59.96523215979998,
27,Month,五月,六月,,Vert,early,up,image/Chi_early.png,"[0, 0.4]","[0, -0.4]",1,congruent,,,,,,,,,,,,,,,,,,,,,,,,,,,,,,,,,,,,,,0,13,13,48,,,,,,,,,,,,,,,,,,,,,,,,,,,,,968.7890007000024,1.0104549000097904,969.8758357999977,969.7925270000051,970.6756718000033,970.7757894000024,970.7757894000024,970.7757894000024,up,1,1.4212225999945076,,,,,,,,,,,,,,,,,,,,,,,,,,,,,,,,,,,,,004,001,2023-11-16_10h59.34.121,ETproject_Chi_2023.1.1,2023.1.1,59.96523215979998,
49,Month,六月,五月,,Hori,early,right,image/Chi_early.png,"[-0.4, 0]","[0.4, 0]",1,incongruent,,,,,,,,,,,,,,,,,,,,,,,,,,,,,,,,,,,,,,0,14,14,20,,,,,,,,,,,,,,,,,,,,,,,,,,,,,972.2289103000003,0.9990837999939686,973.3248987000043,973.241488599997,974.1244828999988,974.2245244000005,974.2245244000005,974.2245244000005,right,1,1.2919670999981463,,,,,,,,,,,,,,,,,,,,,,,,,,,,,,,,,,,,,004,001,2023-11-16_10h59.34.121,ETproject_Chi_2023.1.1,2023.1.1,59.96523215979998,
44,Month,八月,四月,,Hori,late,left,image/Chi_late.png,"[-0.4, 0]","[0.4, 0]",4,incongruent,,,,,,,,,,,,,,,,,,,,,,,,,,,,,,,,,,,,,,0,15,15,40,,,,,,,,,,,,,,,,,,,,,,,,,,,,,976.5500492000065,1.0144484999909764,977.6399650000021,977.5567404999965,978.4399668000042,978.5398273999963,978.5398273999963,978.5398273999963,left,1,1.0160189000016544,,,,,,,,,,,,,,,,,,,,,,,,,,,,,,,,,,,,,004,001,2023-11-16_10h59.34.121,ETproject_Chi_2023.1.1,2023.1.1,59.96523215979998,
147,Week,星期五,星期二,,Vert,late,up,image/Chi_late.png,"[0, 0.4]","[0, -0.4]",3,incongruent,,,,,,,,,,,,,,,,,,,,,,,,,,,,,,,,,,,,,,0,16,16,21,,,,,,,,,,,,,,,,,,,,,,,,,,,,,979.5825887000028,1.0116409000038402,980.672407900005,980.5891485999964,981.4722271999999,981.5718489000064,981.5718489000064,981.5718489000064,up,1,3.07206559999031,,,,,,,,,,,,,,,,,,,,,,,,,,,,,,,,,,,,,004,001,2023-11-16_10h59.34.121,ETproject_Chi_2023.1.1,2023.1.1,59.96523215979998,
121,Week,星期四,星期日,,Vert,late,down,image/Chi_late.png,"[0, 0.4]","[0, -0.4]",3,congruent,,,,,,,,,,,,,,,,,,,,,,,,,,,,,,,,,,,,,,0,17,17,22,,,,,,,,,,,,,,,,,,,,,,,,,,,,,984.6804306000049,1.0126790999929653,985.7706733000014,985.6874536000032,986.5703851000071,986.6705506000071,986.6705506000071,986.6705506000071,down,1,2.365860799996881,,,,,,,,,,,,,,,,,,,,,,,,,,,,,,,,,,,,,004,001,2023-11-16_10h59.34.121,ETproject_Chi_2023.1.1,2023.1.1,59.96523215979998,
15,Month,六月,九月 ,,Hori,late,right,image/Chi_late.png,"[-0.4, 0]","[0.4, 0]",3,congruent,,,,,,,,,,,,,,,,,,,,,,,,,,,,,,,,,,,,,,0,18,18,42,,,,,,,,,,,,,,,,,,,,,,,,,,,,,989.0624003000048,1.0112701000034576,990.1526954999936,990.0693370000008,990.9522373,991.0522885000028,991.0522885000028,991.0522885000028,right,1,1.4321729999937816,,,,,,,,,,,,,,,,,,,,,,,,,,,,,,,,,,,,,004,001,2023-11-16_10h59.34.121,ETproject_Chi_2023.1.1,2023.1.1,59.96523215979998,
6,Month,六月,七月,,Hori,early,left,image/Chi_early.png,"[-0.4, 0]","[0.4, 0]",1,congruent,,,,,,,,,,,,,,,,,,,,,,,,,,,,,,,,,,,,,,0,19,19,33,,,,,,,,,,,,,,,,,,,,,,,,,,,,,992.5165219999981,1.012448299996322,993.6014909000005,993.5181304000071,994.4011469000034,994.501145299997,994.501145299997,994.501145299997,left,1,1.2159153999964474,,,,,,,,,,,,,,,,,,,,,,,,,,,,,,,,,,,,,004,001,2023-11-16_10h59.34.121,ETproject_Chi_2023.1.1,2023.1.1,59.96523215979998,
79,Month,三月,二月,,Vert,late,up,image/Chi_late.png,"[0, 0.4]","[0, -0.4]",1,incongruent,,,,,,,,,,,,,,,,,,,,,,,,,,,,,,,,,,,,,,0,20,20,8,,,,,,,,,,,,,,,,,,,,,,,,,,,,,995.7535897999987,1.0099922000081278,996.8336984999987,996.7670823000008,997.6335265000016,997.7334205000006,997.7334205000006,997.7334205000006,up,1,0.9585646999912569,,,,,,,,,,,,,,,,,,,,,,,,,,,,,,,,,,,,,004,001,2023-11-16_10h59.34.121,ETproject_Chi_2023.1.1,2023.1.1,59.96523215979998,
111,Week,星期一,星期四,,Vert,early,up,image/Chi_early.png,"[0, 0.4]","[0, -0.4]",3,congruent,,,,,,,,,,,,,,,,,,,,,,,,,,,,,,,,,,,,,,0,21,21,16,,,,,,,,,,,,,,,,,,,,,,,,,,,,,998.7268557999996,1.0116854000079911,999.8159878000079,999.7326231999978,1000.6161428999985,1000.715872000008,1000.715872000008,1000.715872000008,up,1,2.3198001999844564,,,,,,,,,,,,,,,,,,,,,,,,,,,,,,,,,,,,,004,001,2023-11-16_10h59.34.121,ETproject_Chi_2023.1.1,2023.1.1,59.96523215979998,
27,Month,七月,九月 ,,Vert,early,up,image/Chi_early.png,"[0, 0.4]","[0, -0.4]",2,congruent,,,,,,,,,,,,,,,,,,,,,,,,,,,,,,,,,,,,,,0,22,22,17,,,,,,,,,,,,,,,,,,,,,,,,,,,,,1003.0751165000038,1.0116216000023996,1004.1646028000032,1004.0814823000037,1004.964255100007,1005.0644370000009,1005.0644370000009,1005.0644370000009,up,1,1.876147300004959,,,,,,,,,,,,,,,,,,,,,,,,,,,,,,,,,,,,,004,001,2023-11-16_10h59.34.121,ETproject_Chi_2023.1.1,2023.1.1,59.96523215979998,
48,Month,五月,四月,,Hori,early,right,image/Chi_early.png,"[-0.4, 0]","[0.4, 0]",1,incongruent,,,,,,,,,,,,,,,,,,,,,,,,,,,,,,,,,,,,,,0,23,23,37,,,,,,,,,,,,,,,,,,,,,,,,,,,,,1006.9689231000011,1.0144662999955472,1008.0632935999965,1007.9800136000049,1008.8631157999989,1008.9630420999965,1008.9630420999965,1008.9630420999965,right,1,1.4180410999979358,,,,,,,,,,,,,,,,,,,,,,,,,,,,,,,,,,,,,004,001,2023-11-16_10h59.34.121,ETproject_Chi_2023.1.1,2023.1.1,59.96523215979998,
135,Week,星期日,星期四,,Hori,late,left,image/Chi_late.png,"[-0.4, 0]","[0.4, 0]",3,incongruent,,,,,,,,,,,,,,,,,,,,,,,,,,,,,,,,,,,,,,0,24,24,12,,,,,,,,,,,,,,,,,,,,,,,,,,,,,1010.424191200007,0.9992204000009224,1011.5121824000016,1011.4288979000048,1012.3119517999949,1012.4120096000042,1012.4120096000042,1012.4120096000042,left,1,2.144627000001492,,,,,,,,,,,,,,,,,,,,,,,,,,,,,,,,,,,,,004,001,2023-11-16_10h59.34.121,ETproject_Chi_2023.1.1,2023.1.1,59.96523215979998,
74,Month,六月,四月,,Vert,late,up,image/Chi_late.png,"[0, 0.4]","[0, -0.4]",2,incongruent,,,,,,,,,,,,,,,,,,,,,,,,,,,,,,,,,,,,,,0,25,25,27,,,,,,,,,,,,,,,,,,,,,,,,,,,,,1014.5869113000008,1.0111930999992182,1015.6775188999964,1015.5941919999968,1016.4774724999952,1016.5774402000025,1016.5774402000025,1016.5774402000025,up,1,1.7942168999870773,,,,,,,,,,,,,,,,,,,,,,,,,,,,,,,,,,,,,004,001,2023-11-16_10h59.34.121,ETproject_Chi_2023.1.1,2023.1.1,59.96523215979998,
106,Week,星期三 ,星期四,,Hori,late,right,image/Chi_late.png,"[-0.4, 0]","[0.4, 0]",1,congruent,,,,,,,,,,,,,,,,,,,,,,,,,,,,,,,,,,,,,,0,26,26,28,,,,,,,,,,,,,,,,,,,,,,,,,,,,,1018.3988381000017,1.0155499999964377,1019.4929183999993,1019.4096128000019,1020.2925593000036,1020.3925690999968,1020.3925690999968,1020.3925690999968,right,1,2.2510177999938605,,,,,,,,,,,,,,,,,,,,,,,,,,,,,,,,,,,,,004,001,2023-11-16_10h59.34.121,ETproject_Chi_2023.1.1,2023.1.1,59.96523215979998,
2,Month,二月,四月,,Hori,early,left,image/Chi_early.png,"[-0.4, 0]","[0.4, 0]",2,congruent,,,,,,,,,,,,,,,,,,,,,,,,,,,,,,,,,,,,,,0,27,27,5,,,,,,,,,,,,,,,,,,,,,,,,,,,,,1022.686426399996,1.0129324000008637,1023.7746694000016,1023.6916746999996,1024.5746086000072,1024.6745972999997,1024.6745972999997,1024.6745972999997,left,1,0.9451537999993889,,,,,,,,,,,,,,,,,,,,,,,,,,,,,,,,,,,,,004,001,2023-11-16_10h59.34.121,ETproject_Chi_2023.1.1,2023.1.1,59.96523215979998,
3,Month,三月,七月,,Hori,early,left,image/Chi_early.png,"[-0.4, 0]","[0.4, 0]",4,congruent,,,,,,,,,,,,,,,,,,,,,,,,,,,,,,,,,,,,,,0,28,28,49,,,,,,,,,,,,,,,,,,,,,,,,,,,,,1025.6500698999953,1.0106839000072796,1026.740472700003,1026.6572369999994,1027.5402638000014,1027.640303500004,1027.640303500004,1027.640303500004,left,1,0.7882593000103952,,,,,,,,,,,,,,,,,,,,,,,,,,,,,,,,,,,,,004,001,2023-11-16_10h59.34.121,ETproject_Chi_2023.1.1,2023.1.1,59.96523215979998,
132,Week,星期二,星期一,,Hori,late,left,image/Chi_late.png,"[-0.4, 0]","[0.4, 0]",1,incongruent,,,,,,,,,,,,,,,,,,,,,,,,,,,,,,,,,,,,,,0,29,29,36,,,,,,,,,,,,,,,,,,,,,,,,,,,,,1028.4713914999957,1.0135955000005197,1029.556277600008,1029.4730167000016,1030.3559706000015,1030.455911799996,1030.455911799996,1030.455911799996,left,1,2.0836656000028597,,,,,,,,,,,,,,,,,,,,,,,,,,,,,,,,,,,,,004,001,2023-11-16_10h59.34.121,ETproject_Chi_2023.1.1,2023.1.1,59.96523215979998,
56,Month,五月,二月,,Vert,early,down,image/Chi_early.png,"[0, 0.4]","[0, -0.4]",3,incongruent,,,,,,,,,,,,,,,,,,,,,,,,,,,,,,,,,,,,,,0,30,30,3,,,,,,,,,,,,,,,,,,,,,,,,,,,,,1032.5804632,1.0156417000107467,1033.671614400002,1033.5883545000033,1034.4713158000013,1034.5713418000014,1034.5713418000014,1034.5713418000014,down,1,2.2254277000029106,,,,,,,,,,,,,,,,,,,,,,,,,,,,,,,,,,,,,004,001,2023-11-16_10h59.34.121,ETproject_Chi_2023.1.1,2023.1.1,59.96523215979998,
142,Week,星期六,星期四,,Vert,early,down,image/Chi_early.png,"[0, 0.4]","[0, -0.4]",2,incongruent,,,,,,,,,,,,,,,,,,,,,,,,,,,,,,,,,,,,,,0,31,31,15,,,,,,,,,,,,,,,,,,,,,,,,,,,,,1036.8299409999963,1.0112377999903401,1037.920140299997,1037.8367784999937,1038.7198480000006,1038.8199592999954,1038.8199592999954,1038.8199592999954,down,1,1.223796999984188,,,,,,,,,,,,,,,,,,,,,,,,,,,,,,,,,,,,,004,001,2023-11-16_10h59.34.121,ETproject_Chi_2023.1.1,2023.1.1,59.96523215979998,
138,Week,星期一,星期日,,Hori,late,left,image/Chi_late.png,"[-0.4, 0]","[0.4, 0]",1,incongruent,,,,,,,,,,,,,,,,,,,,,,,,,,,,,,,,,,,,,,0,32,32,18,,,,,,,,,,,,,,,,,,,,,,,,,,,,,1040.0856458999988,1.014285999990534,1041.169096000005,1041.0859502000021,1041.968719400007,1042.0688200000077,1042.0688200000077,1042.0688200000077,right,0,0.7517006999987643,,,,,,,,,,,,,,,,,,,,,,,,,,,,,,,,,,,,,004,001,2023-11-16_10h59.34.121,ETproject_Chi_2023.1.1,2023.1.1,59.96523215979998,
35,Month,五月,七月,,Vert,late,down,image/Chi_late.png,"[0, 0.4]","[0, -0.4]",2,congruent,,,,,,,,,,,,,,,,,,,,,,,,,,,,,,,,,,,,,,0,33,33,4,,,,,,,,,,,,,,,,,,,,,,,,,,,,,1042.8617575000026,1.0105295999965165,1043.9515952000002,1043.8683257000012,1044.7513903,1044.8510819000003,1044.8510819000003,1044.8510819000003,down,1,1.6096322999947006,,,,,,,,,,,,,,,,,,,,,,,,,,,,,,,,,,,,,004,001,2023-11-16_10h59.34.121,ETproject_Chi_2023.1.1,2023.1.1,59.96523215979998,
3,Month,三月,四月,,Hori,early,left,image/Chi_early.png,"[-0.4, 0]","[0.4, 0]",1,congruent,,,,,,,,,,,,,,,,,,,,,,,,,,,,,,,,,,,,,,0,34,34,19,,,,,,,,,,,,,,,,,,,,,,,,,,,,,1046.4936607000054,1.0127882999950089,1047.583361799996,1047.5001728999996,1048.3834274000037,1048.4832786999978,1048.4832786999978,1048.4832786999978,left,1,1.9060228999878746,,,,,,,,,,,,,,,,,,,,,,,,,,,,,,,,,,,,,004,001,2023-11-16_10h59.34.121,ETproject_Chi_2023.1.1,2023.1.1,59.96523215979998,
18,Month,二月,六月,,Vert,early,up,image/Chi_early.png,"[0, 0.4]","[0, -0.4]",4,congruent,,,,,,,,,,,,,,,,,,,,,,,,,,,,,,,,,,,,,,0,35,35,25,,,,,,,,,,,,,,,,,,,,,,,,,,,,,1050.423506500003,1.0132925000070827,1051.5157863999993,1051.4322455000001,1052.315484800005,1052.4154172000053,1052.4154172000053,1052.4154172000053,up,1,0.7329846000066027,,,,,,,,,,,,,,,,,,,,,,,,,,,,,,,,,,,,,004,001,2023-11-16_10h59.34.121,ETproject_Chi_2023.1.1,2023.1.1,59.96523215979998,
67,Month,七月,四月,,Vert,late,up,image/Chi_late.png,"[0, 0.4]","[0, -0.4]",3,incongruent,,,,,,,,,,,,,,,,,,,,,,,,,,,,,,,,,,,,,,0,36,36,6,,,,,,,,,,,,,,,,,,,,,,,,,,,,,1053.174174000007,1.015365600003861,1054.2647604000013,1054.1814303000065,1055.0645252000031,1055.1645448999989,1055.1645448999989,1055.1645448999989,up,1,1.8803255999955582,,,,,,,,,,,,,,,,,,,,,,,,,,,,,,,,,,,,,004,001,2023-11-16_10h59.34.121,ETproject_Chi_2023.1.1,2023.1.1,59.96523215979998,
