No,Category,earlier_stim,later_stim,conguency,orientation,instruction,corr_resp,Instruction_stim,early_position,late_position,distance,congruency,Image,Qustion,Response,CorrAns,Path,prac_block.thisRepN,prac_block.thisTrialN,prac_block.thisN,prac_block.thisIndex,trials.thisRepN,trials.thisTrialN,trials.thisN,trials.thisIndex,block1.thisRepN,block1.thisTrialN,block1.thisN,block1.thisIndex,break1.thisRepN,break1.thisTrialN,break1.thisN,break1.thisIndex,block2.thisRepN,block2.thisTrialN,block2.thisN,block2.thisIndex,break2.thisRepN,break2.thisTrialN,break2.thisN,break2.thisIndex,block3.thisRepN,block3.thisTrialN,block3.thisN,block3.thisIndex,break3.thisRepN,break3.thisTrialN,break3.thisN,break3.thisIndex,block4.thisRepN,block4.thisTrialN,block4.thisN,block4.thisIndex,intro_1.started,intro_2.started,intro2_resp.started,intro2_resp.keys,intro2_resp.rt,Intro_3.started,intro3_resp.started,intro3_resp.keys,intro3_resp.rt,pracintro.started,pracintro_resp.started,pracintro_resp.keys,pracintro_resp.rt,image.started,early.started,RESP.started,late.started,pracfeedback.started,pracfeedback.stopped,image.stopped,text_4.started,text_4.stopped,text_5.started,baselinerecord.started,intro_5.started,intro5_resp.started,intro5_resp.keys,intro5_resp.rt,main_image_2.started,etRecord.started,main_image_2.stopped,fix.started,fix.stopped,main_early.started,ct_resp.started,main_late.started,ct_resp.keys,ct_resp.corr,ct_resp.rt,intro.started,intro2_resp_2.started,intro2_resp_2.keys,intro2_resp_2.rt,fengjing.started,text.started,fengjing.stopped,text.stopped,key_resp.started,text_2.started,text_3.started,key_resp.keys,key_resp.corr,key_resp.rt,intro_6.started,intro5_resp_2.started,intro5_resp_2.keys,intro5_resp_2.rt,intro_3.started,intro2_resp_3.started,intro2_resp_3.keys,intro2_resp_3.rt,intro_7.started,intro2_resp_5.started,intro2_resp_5.keys,intro2_resp_5.rt,intro_4.started,intro2_resp_4.started,intro2_resp_4.keys,intro2_resp_4.rt,intro_8.started,intro2_resp_6.started,intro2_resp_6.keys,intro2_resp_6.rt,theend.started,theend.stopped,participant,session,date,expName,psychopyVersion,frameRate,
,,,,,,,,,,,,,,,,,,,,,,,,,,,,,,,,,,,,,,,,,,,,,,,,,,,,,,88.35030150000239,90.36476079997374,90.36476079997374,space,4.956715999986045,,,,,,,,,,,,,,,,,,,,,,,,,,,,,,,,,,,,,,,,,,,,,,,,,,,,,,,,,,,,,,,,,,,,,,,008,001,2023-11-19_13h35.59.674,ETproject_Chi_2023.1.1,2023.1.1,60.01842565723753,
,,,,,,,,,,,,,,,,,,,,,,,,,,,,,,,,,,,,,,,,,,,,,,,,,,,,,,,,,,,95.34673460002523,95.34673460002523,space,17.734312100044917,,,,,,,,,,,,,,,,,,,,,,,,,,,,,,,,,,,,,,,,,,,,,,,,,,,,,,,,,,,,,,,,,,,008,001,2023-11-19_13h35.59.674,ETproject_Chi_2023.1.1,2023.1.1,60.01842565723753,
2,practice,星期五,星期六,congruent,Hori,late,right,image/Chi_late.png,"[-0.4, 0]","[0.4, 0]",,,,,,,,0,0,0,0,0,0,0,1,,,,,,,,,,,,,,,,,,,,,,,,,,,,,,,,,,,,,,113.15144970000256,113.15144970000256,space,4.082395199977327,117.3146733000176,118.27213589998428,118.27213589998428,118.27213589998428,120.5920061999932,,,,,,,,,,,,,,,,,,,,,,,,,,,,,,,,,,,,,,,,,,,,,,,,,,,,,,,,,,008,001,2023-11-19_13h35.59.674,ETproject_Chi_2023.1.1,2023.1.1,60.01842565723753,
1,practice,星期三 ,星期四,congruent,Hori,early,left,image/Chi_early.png,"[-0.4, 0]","[0.4, 0]",,,,,,,,0,0,0,0,0,1,1,0,,,,,,,,,,,,,,,,,,,,,,,,,,,,,,,,,,,,,,,,,,121.60770140000386,122.60401090001687,122.60401090001687,122.60401090001687,123.77051050000591,124.77843690000009,,,,,,,,,,,,,,,,,,,,,,,,,,,,,,,,,,,,,,,,,,,,,,,,,,,,,,,,,008,001,2023-11-19_13h35.59.674,ETproject_Chi_2023.1.1,2023.1.1,60.01842565723753,
8,practice,星期六,星期五,incongruent,Vert,late,up,image/Chi_late.png,"[0, 0.4]","[0, -0.4]",,,,,,,,0,0,0,0,0,2,2,7,,,,,,,,,,,,,,,,,,,,,,,,,,,,,,,,,,,,,,,,,,124.77843690000009,125.78617989999475,125.78617989999475,125.78617989999475,130.78486219997285,,,,,,,,,,,,,,,,,,,,,,,,,,,,,,,,,,,,,,,,,,,,,,,,,,,,,,,,,,008,001,2023-11-19_13h35.59.674,ETproject_Chi_2023.1.1,2023.1.1,60.01842565723753,
7,practice,星期三 ,星期二,incongruent,Vert,early,down,image/Chi_early.png,"[0, 0.4]","[0, -0.4]",,,,,,,,0,0,0,0,0,3,3,6,,,,,,,,,,,,,,,,,,,,,,,,,,,,,,,,,,,,,,,,,,131.78854490001686,132.78390929999296,132.78390929999296,132.78390929999296,134.18365899997298,135.1844835000229,,,,,,,,,,,,,,,,,,,,,,,,,,,,,,,,,,,,,,,,,,,,,,,,,,,,,,,,,008,001,2023-11-19_13h35.59.674,ETproject_Chi_2023.1.1,2023.1.1,60.01842565723753,
5,practice,星期二,星期一,incongruent,Hori,early,right,image/Chi_early.png,"[-0.4, 0]","[0.4, 0]",,,,,,,,0,0,0,0,0,4,4,4,,,,,,,,,,,,,,,,,,,,,,,,,,,,,,,,,,,,,,,,,,135.1844835000229,136.18266380002024,136.18266380002024,136.18266380002024,137.6492992999847,138.65007430000696,136.18266380002024,,,,,,,,,,,,,,,,,,,,,,,,,,,,,,,,,,,,,,,,,,,,,,,,,,,,,,,,008,001,2023-11-19_13h35.59.674,ETproject_Chi_2023.1.1,2023.1.1,60.01842565723753,
3,practice,星期一,星期二,congruent,Vert,early,up,image/Chi_early.png,"[0, 0.4]","[0, -0.4]",,,,,,,,0,0,0,0,0,5,5,2,,,,,,,,,,,,,,,,,,,,,,,,,,,,,,,,,,,,,,,,,,138.65007430000696,139.66503540001577,139.66503540001577,139.66503540001577,141.23136089998297,142.24100189999444,,,,,,,,,,,,,,,,,,,,,,,,,,,,,,,,,,,,,,,,,,,,,,,,,,,,,,,,,008,001,2023-11-19_13h35.59.674,ETproject_Chi_2023.1.1,2023.1.1,60.01842565723753,
4,practice,星期日,星期一,congruent,Vert,late,down,image/Chi_late.png,"[0, 0.4]","[0, -0.4]",,,,,,,,0,0,0,0,0,6,6,3,,,,,,,,,,,,,,,,,,,,,,,,,,,,,,,,,,,,,,,,,,142.24100189999444,143.24718800000846,143.24718800000846,143.24718800000846,144.98204909998458,,,,,,,,,,,,,,,,,,,,,,,,,,,,,,,,,,,,,,,,,,,,,,,,,,,,,,,,,,008,001,2023-11-19_13h35.59.674,ETproject_Chi_2023.1.1,2023.1.1,60.01842565723753,
6,practice,星期四,星期三 ,incongruent,Hori,late,left,image/Chi_late.png,"[-0.4, 0]","[0.4, 0]",,,,,,,,0,0,0,0,0,7,7,5,,,,,,,,,,,,,,,,,,,,,,,,,,,,,,,,,,,,,,,,,,145.9975794000202,146.99596400000155,146.99596400000155,146.99596400000155,148.1790204999852,149.17866749997484,,,,,,,,,,,,,,,,,,,,,,,,,,,,,,,,,,,,,,,,,,,,,,,,,,,,,,,,,008,001,2023-11-19_13h35.59.674,ETproject_Chi_2023.1.1,2023.1.1,60.01842565723753,
,,,,,,,,,,,,,,,,,,0,0,0,0,,,,,,,,,,,,,,,,,,,,,,,,,,,,,,,,,,,,,,,,,,,,,,,,,,,,,,,,,,,,,,,,,,,,,,,,,,,,,,,,,,,,,,,,,,,,,,,,,,,,,,,,,,,,008,001,2023-11-19_13h35.59.674,ETproject_Chi_2023.1.1,2023.1.1,60.01842565723753,
,,,,,,,,,,,,,,,,,,,,,,,,,,,,,,,,,,,,,,,,,,,,,,,,,,,,,,,,,,,,,,,,,,,,,,,,,,149.17866749997484,152.1776252000127,152.1776252000127,3.0148694000090472,156.19308350002393,156.19308350002393,space,2.3760672999778762,,,,,,,,,,,,,,,,,,,,,,,,,,,,,,,,,,,,,,,,,,,,,,,,008,001,2023-11-19_13h35.59.674,ETproject_Chi_2023.1.1,2023.1.1,60.01842565723753,
12,Week,星期日,星期四,,Vert,late,up,image/Chi_late.png,"[0, 0.4]","[0, -0.4]",3,incongruent,,,,,,,,,,,,,,0,0,0,9,,,,,,,,,,,,,,,,,,,,,,,,,,,,,,,,,,,,,,,,,,,,,,,,,,,,,158.60924570000498,0.9992094999761321,159.6083903000108,159.69188320002286,160.491543799988,160.59146429999964,160.59146429999964,160.59146429999964,up,1,1.8415679999743588,,,,,,,,,,,,,,,,,,,,,,,,,,,,,,,,,,,,,008,001,2023-11-19_13h35.59.674,ETproject_Chi_2023.1.1,2023.1.1,60.01842565723753,
127,Week,星期五,星期三 ,,Hori,early,right,image/Chi_early.png,"[-0.4, 0]","[0.4, 0]",2,incongruent,,,,,,,,,,,,,,0,1,1,13,,,,,,,,,,,,,,,,,,,,,,,,,,,,,,,,,,,,,,,,,,,,,,,,,,,,,162.47598899999866,1.0115057000075467,163.49046840000665,163.55727769999066,164.3568687000079,164.45689159998437,164.45689159998437,164.45689159998437,right,1,1.1755200999905355,,,,,,,,,,,,,,,,,,,,,,,,,,,,,,,,,,,,,008,001,2023-11-19_13h35.59.674,ETproject_Chi_2023.1.1,2023.1.1,60.01842565723753,
63,Month,十二月,九月 ,,Vert,early,down,image/Chi_early.png,"[0, 0.4]","[0, -0.4]",3,incongruent,,,,,,,,,,,,,,0,2,2,22,,,,,,,,,,,,,,,,,,,,,,,,,,,,,,,,,,,,,,,,,,,,,,,,,,,,,165.66926559997955,1.0107783999992535,166.67272370000137,166.7561797000235,167.55578569998033,167.65575209999224,167.65575209999224,167.65575209999224,down,1,1.4086198000004515,,,,,,,,,,,,,,,,,,,,,,,,,,,,,,,,,,,,,008,001,2023-11-19_13h35.59.674,ETproject_Chi_2023.1.1,2023.1.1,60.01842565723753,
98,Week,星期二,星期三 ,,Hori,early,left,image/Chi_early.png,"[-0.4, 0]","[0.4, 0]",1,congruent,,,,,,,,,,,,,,0,3,3,49,,,,,,,,,,,,,,,,,,,,,,,,,,,,,,,,,,,,,,,,,,,,,,,,,,,,,169.0972669000039,1.0119514999678358,170.10505249997368,170.18830300000263,170.9879585999879,171.08823950000806,171.08823950000806,171.08823950000806,left,1,1.168508299975656,,,,,,,,,,,,,,,,,,,,,,,,,,,,,,,,,,,,,008,001,2023-11-19_13h35.59.674,ETproject_Chi_2023.1.1,2023.1.1,60.01842565723753,
38,Month,八月,十月 ,,Vert,late,down,image/Chi_late.png,"[0, 0.4]","[0, -0.4]",2,congruent,,,,,,,,,,,,,,0,4,4,37,,,,,,,,,,,,,,,,,,,,,,,,,,,,,,,,,,,,,,,,,,,,,,,,,,,,,172.29872520000208,1.013007000030484,173.30405500001507,173.3873750999919,174.1870686999755,174.28713279997464,174.28713279997464,174.28713279997464,down,1,0.9943572000483982,,,,,,,,,,,,,,,,,,,,,,,,,,,,,,,,,,,,,008,001,2023-11-19_13h35.59.674,ETproject_Chi_2023.1.1,2023.1.1,60.01842565723753,
46,Month,四月,一月,,Hori,late,left,image/Chi_late.png,"[-0.4, 0]","[0.4, 0]",3,incongruent,,,,,,,,,,,,,,0,5,5,14,,,,,,,,,,,,,,,,,,,,,,,,,,,,,,,,,,,,,,,,,,,,,,,,,,,,,175.31314350001048,1.0111436999868602,176.31969279999612,176.4029484000057,177.20271779998438,177.30259219999425,177.30259219999425,177.30259219999425,left,1,0.9789221999817528,,,,,,,,,,,,,,,,,,,,,,,,,,,,,,,,,,,,,008,001,2023-11-19_13h35.59.674,ETproject_Chi_2023.1.1,2023.1.1,60.01842565723753,
125,Week,星期三 ,星期一,,Hori,early,right,image/Chi_early.png,"[-0.4, 0]","[0.4, 0]",2,incongruent,,,,,,,,,,,,,,0,6,6,5,,,,,,,,,,,,,,,,,,,,,,,,,,,,,,,,,,,,,,,,,,,,,,,,,,,,,179.31359019997763,1.0145647000172175,180.3182084999862,180.40150789998006,181.20126509998227,181.30131249997066,181.30131249997066,181.30131249997066,right,1,1.1077086000004783,,,,,,,,,,,,,,,,,,,,,,,,,,,,,,,,,,,,,008,001,2023-11-19_13h35.59.674,ETproject_Chi_2023.1.1,2023.1.1,60.01842565723753,
6,Month,六月,十月 ,,Hori,early,left,image/Chi_early.png,"[-0.4, 0]","[0.4, 0]",4,congruent,,,,,,,,,,,,,,0,7,7,29,,,,,,,,,,,,,,,,,,,,,,,,,,,,,,,,,,,,,,,,,,,,,,,,,,,,,182.43831479997607,1.01560410001548,183.45016349997604,183.53363840002567,184.33363190002274,184.43359069997678,184.43359069997678,184.43359069997678,left,1,0.9514901000075042,,,,,,,,,,,,,,,,,,,,,,,,,,,,,,,,,,,,,008,001,2023-11-19_13h35.59.674,ETproject_Chi_2023.1.1,2023.1.1,60.01842565723753,
1,Month,一月,二月 ,,Hori,early,left,image/Chi_early.png,"[-0.4, 0]","[0.4, 0]",1,congruent,,,,,,,,,,,,,,0,8,8,28,,,,,,,,,,,,,,,,,,,,,,,,,,,,,,,,,,,,,,,,,,,,,,,,,,,,,185.42153729998972,1.0148348999791779,186.43287909997161,186.51627459999872,187.3160733000259,187.41607909998856,187.41607909998856,187.41607909998856,left,1,0.7360631999908946,,,,,,,,,,,,,,,,,,,,,,,,,,,,,,,,,,,,,008,001,2023-11-19_13h35.59.674,ETproject_Chi_2023.1.1,2023.1.1,60.01842565723753,
116,Week,星期六,星期日,,Vert,early,up,image/Chi_early.png,"[0, 0.4]","[0, -0.4]",1,congruent,,,,,,,,,,,,,,0,9,9,10,,,,,,,,,,,,,,,,,,,,,,,,,,,,,,,,,,,,,,,,,,,,,,,,,,,,,188.19283369998448,1.0094858999946155,189.19864560000133,189.28206459997455,190.08191990002524,190.18159440002637,190.18159440002637,190.18159440002637,up,1,1.674626599997282,,,,,,,,,,,,,,,,,,,,,,,,,,,,,,,,,,,,,008,001,2023-11-19_13h35.59.674,ETproject_Chi_2023.1.1,2023.1.1,60.01842565723753,
78,Month,十月 ,八月,,Vert,late,up,image/Chi_late.png,"[0, 0.4]","[0, -0.4]",2,incongruent,,,,,,,,,,,,,,0,10,10,44,,,,,,,,,,,,,,,,,,,,,,,,,,,,,,,,,,,,,,,,,,,,,,,,,,,,,191.8925814999966,0.9991246999707073,192.89738969999598,192.9807248999714,193.78059089998715,193.88047630002256,193.88047630002256,193.88047630002256,up,1,1.4571318999514915,,,,,,,,,,,,,,,,,,,,,,,,,,,,,,,,,,,,,008,001,2023-11-19_13h35.59.674,ETproject_Chi_2023.1.1,2023.1.1,60.01842565723753,
148,Week,星期六,星期三 ,,Vert,late,up,image/Chi_late.png,"[0, 0.4]","[0, -0.4]",3,incongruent,,,,,,,,,,,,,,0,11,11,26,,,,,,,,,,,,,,,,,,,,,,,,,,,,,,,,,,,,,,,,,,,,,,,,,,,,,195.3711521999794,1.011964800010901,196.37968000001274,196.46305199997732,197.2626745000016,197.36275390000083,197.36275390000083,197.36275390000083,up,1,1.7255652999738231,,,,,,,,,,,,,,,,,,,,,,,,,,,,,,,,,,,,,008,001,2023-11-19_13h35.59.674,ETproject_Chi_2023.1.1,2023.1.1,60.01842565723753,
24,Month,四月,六月,,Vert,early,up,image/Chi_early.png,"[0, 0.4]","[0, -0.4]",2,congruent,,,,,,,,,,,,,,0,12,12,8,,,,,,,,,,,,,,,,,,,,,,,,,,,,,,,,,,,,,,,,,,,,,,,,,,,,,199.12374120001914,1.0109613999957219,200.12856410001405,200.21170039998833,201.0114260999835,201.11144329997478,201.11144329997478,201.11144329997478,up,1,1.032837200036738,,,,,,,,,,,,,,,,,,,,,,,,,,,,,,,,,,,,,008,001,2023-11-19_13h35.59.674,ETproject_Chi_2023.1.1,2023.1.1,60.01842565723753,
114,Week,星期四,星期日,,Vert,early,up,image/Chi_early.png,"[0, 0.4]","[0, -0.4]",3,congruent,,,,,,,,,,,,,,0,13,13,12,,,,,,,,,,,,,,,,,,,,,,,,,,,,,,,,,,,,,,,,,,,,,,,,,,,,,202.17077789996983,1.0106075000367127,203.17756560002454,203.26077609998174,204.0603426999878,204.1604511999758,204.1604511999758,204.1604511999758,up,1,1.3201540000154637,,,,,,,,,,,,,,,,,,,,,,,,,,,,,,,,,,,,,008,001,2023-11-19_13h35.59.674,ETproject_Chi_2023.1.1,2023.1.1,60.01842565723753,
142,Week,星期五,星期四,,Vert,early,down,image/Chi_early.png,"[0, 0.4]","[0, -0.4]",1,incongruent,,,,,,,,,,,,,,0,14,14,0,,,,,,,,,,,,,,,,,,,,,,,,,,,,,,,,,,,,,,,,,,,,,,,,,,,,,205.51981909997994,1.0109287000377662,206.5263660000055,206.60966359998565,207.4093392000068,207.50953109998954,207.50953109998954,207.50953109998954,down,1,1.171390799980145,,,,,,,,,,,,,,,,,,,,,,,,,,,,,,,,,,,,,008,001,2023-11-19_13h35.59.674,ETproject_Chi_2023.1.1,2023.1.1,60.01842565723753,
97,Week,星期一,星期四,,Hori,early,left,image/Chi_early.png,"[-0.4, 0]","[0.4, 0]",3,congruent,,,,,,,,,,,,,,0,15,15,20,,,,,,,,,,,,,,,,,,,,,,,,,,,,,,,,,,,,,,,,,,,,,,,,,,,,,208.71733289997792,1.0120990999857895,209.72538419999182,209.80851409997558,210.60832980001578,210.7081675999798,210.7081675999798,210.7081675999798,left,1,0.8771734000183642,,,,,,,,,,,,,,,,,,,,,,,,,,,,,,,,,,,,,008,001,2023-11-19_13h35.59.674,ETproject_Chi_2023.1.1,2023.1.1,60.01842565723753,
50,Month,八月,五月,,Hori,late,left,image/Chi_late.png,"[-0.4, 0]","[0.4, 0]",3,incongruent,,,,,,,,,,,,,,0,16,16,35,,,,,,,,,,,,,,,,,,,,,,,,,,,,,,,,,,,,,,,,,,,,,,,,,,,,,211.62074099999154,1.0110559999593534,212.62435779999942,212.70765589998337,213.50749849999556,213.60754549998092,213.60754549998092,213.60754549998092,left,1,1.2565994000178762,,,,,,,,,,,,,,,,,,,,,,,,,,,,,,,,,,,,,008,001,2023-11-19_13h35.59.674,ETproject_Chi_2023.1.1,2023.1.1,60.01842565723753,
23,Month,七月,十一月 ,,Vert,early,up,image/Chi_early.png,"[0, 0.4]","[0, -0.4]",4,congruent,,,,,,,,,,,,,,0,17,17,48,,,,,,,,,,,,,,,,,,,,,,,,,,,,,,,,,,,,,,,,,,,,,,,,,,,,,214.90401890000794,1.0111201999825425,215.9065981999738,215.98996249999618,216.78951209998922,216.88962339999853,216.88962339999853,216.88962339999853,down,0,1.8793024999904446,,,,,,,,,,,,,,,,,,,,,,,,,,,,,,,,,,,,,008,001,2023-11-19_13h35.59.674,ETproject_Chi_2023.1.1,2023.1.1,60.01842565723753,
62,Month,十月 ,六月,,Vert,late,up,image/Chi_late.png,"[0, 0.4]","[0, -0.4]",4,incongruent,,,,,,,,,,,,,,0,18,18,27,,,,,,,,,,,,,,,,,,,,,,,,,,,,,,,,,,,,,,,,,,,,,,,,,,,,,218.79795450001257,1.014601600007154,219.80521159997443,219.8886032999726,220.68842239998048,220.7882350999862,220.7882350999862,220.7882350999862,up,1,1.1238539000041783,,,,,,,,,,,,,,,,,,,,,,,,,,,,,,,,,,,,,008,001,2023-11-19_13h35.59.674,ETproject_Chi_2023.1.1,2023.1.1,60.01842565723753,
141,Week,星期五,星期三 ,,Vert,early,down,image/Chi_early.png,"[0, 0.4]","[0, -0.4]",2,incongruent,,,,,,,,,,,,,,0,19,19,15,,,,,,,,,,,,,,,,,,,,,,,,,,,,,,,,,,,,,,,,,,,,,,,,,,,,,221.94821220001904,1.014951099990867,222.95419189997483,223.0375706999912,223.83724780002376,223.9372298999806,223.9372298999806,223.9372298999806,down,1,1.4240568000241183,,,,,,,,,,,,,,,,,,,,,,,,,,,,,,,,,,,,,008,001,2023-11-19_13h35.59.674,ETproject_Chi_2023.1.1,2023.1.1,60.01842565723753,
150,Week,星期六,星期五,,Vert,late,up,image/Chi_late.png,"[0, 0.4]","[0, -0.4]",1,incongruent,,,,,,,,,,,,,,0,20,20,23,,,,,,,,,,,,,,,,,,,,,,,,,,,,,,,,,,,,,,,,,,,,,,,,,,,,,225.39532720000716,0.9993580000009388,226.4030678999843,226.48647000000346,227.28617560002021,227.38615709997248,227.38615709997248,227.38615709997248,up,1,1.1981613000389189,,,,,,,,,,,,,,,,,,,,,,,,,,,,,,,,,,,,,008,001,2023-11-19_13h35.59.674,ETproject_Chi_2023.1.1,2023.1.1,60.01842565723753,
59,Month,七月,三月,,Vert,late,up,image/Chi_late.png,"[0, 0.4]","[0, -0.4]",4,incongruent,,,,,,,,,,,,,,0,21,21,47,,,,,,,,,,,,,,,,,,,,,,,,,,,,,,,,,,,,,,,,,,,,,,,,,,,,,228.61150980001548,1.0112134999944828,229.6187256000121,229.70205530000385,230.50175529997796,230.60182919999352,230.60182919999352,230.60182919999352,up,1,1.0636725000222214,,,,,,,,,,,,,,,,,,,,,,,,,,,,,,,,,,,,,008,001,2023-11-19_13h35.59.674,ETproject_Chi_2023.1.1,2023.1.1,60.01842565723753,
99,Week,星期三 ,星期六,,Hori,early,left,image/Chi_early.png,"[-0.4, 0]","[0.4, 0]",3,congruent,,,,,,,,,,,,,,0,22,22,6,,,,,,,,,,,,,,,,,,,,,,,,,,,,,,,,,,,,,,,,,,,,,,,,,,,,,231.6923676999868,1.0152068000170402,232.7010142999934,232.7843384000007,233.58411880000494,233.68410070001846,233.68410070001846,233.68410070001846,left,1,0.7974651999538764,,,,,,,,,,,,,,,,,,,,,,,,,,,,,,,,,,,,,008,001,2023-11-19_13h35.59.674,ETproject_Chi_2023.1.1,2023.1.1,60.01842565723753,
34,Month,七月,十月 ,,Vert,late,down,image/Chi_late.png,"[0, 0.4]","[0, -0.4]",3,congruent,,,,,,,,,,,,,,0,23,23,11,,,,,,,,,,,,,,,,,,,,,,,,,,,,,,,,,,,,,,,,,,,,,,,,,,,,,235.50903800001834,1.0147518999874592,236.51641450001625,236.5997430999996,237.399499799998,237.49946670001373,237.49946670001373,237.49946670001373,down,1,1.1729911000002176,,,,,,,,,,,,,,,,,,,,,,,,,,,,,,,,,,,,,008,001,2023-11-19_13h35.59.674,ETproject_Chi_2023.1.1,2023.1.1,60.01842565723753,
112,Week,星期二,星期三 ,,Vert,early,up,image/Chi_early.png,"[0, 0.4]","[0, -0.4]",1,congruent,,,,,,,,,,,,,,0,24,24,31,,,,,,,,,,,,,,,,,,,,,,,,,,,,,,,,,,,,,,,,,,,,,,,,,,,,,238.71588029997656,1.0109408000134863,239.71543500002008,239.79877599998144,240.59834299999056,240.69841630000155,240.69841630000155,240.69841630000155,up,1,1.4376884999801405,,,,,,,,,,,,,,,,,,,,,,,,,,,,,,,,,,,,,008,001,2023-11-19_13h35.59.674,ETproject_Chi_2023.1.1,2023.1.1,60.01842565723753,
112,Week,星期二,星期五,,Vert,early,up,image/Chi_early.png,"[0, 0.4]","[0, -0.4]",3,congruent,,,,,,,,,,,,,,0,25,25,24,,,,,,,,,,,,,,,,,,,,,,,,,,,,,,,,,,,,,,,,,,,,,,,,,,,,,242.17289950000122,1.0117435999563895,243.18089439999312,243.2640477999812,244.06371179997222,244.16379869997036,244.16379869997036,244.16379869997036,up,1,0.909970999986399,,,,,,,,,,,,,,,,,,,,,,,,,,,,,,,,,,,,,008,001,2023-11-19_13h35.59.674,ETproject_Chi_2023.1.1,2023.1.1,60.01842565723753,
143,Week,星期六,星期五,,Vert,early,down,image/Chi_early.png,"[0, 0.4]","[0, -0.4]",1,incongruent,,,,,,,,,,,,,,0,26,26,36,,,,,,,,,,,,,,,,,,,,,,,,,,,,,,,,,,,,,,,,,,,,,,,,,,,,,246.1009254999808,1.0154013999854214,247.11289440002292,247.19657179998467,247.99605539999902,248.09611799998675,248.09611799998675,248.09611799998675,down,1,1.4412684999988414,,,,,,,,,,,,,,,,,,,,,,,,,,,,,,,,,,,,,008,001,2023-11-19_13h35.59.674,ETproject_Chi_2023.1.1,2023.1.1,60.01842565723753,
29,Month,七月,八月,,Vert,early,up,image/Chi_early.png,"[0, 0.4]","[0, -0.4]",1,congruent,,,,,,,,,,,,,,0,27,27,2,,,,,,,,,,,,,,,,,,,,,,,,,,,,,,,,,,,,,,,,,,,,,,,,,,,,,249.57107409997843,1.0118388999835588,250.5783568000188,250.66195590002462,251.4614819000126,251.5614893999882,251.5614893999882,251.5614893999882,up,1,1.1273602999863215,,,,,,,,,,,,,,,,,,,,,,,,,,,,,,,,,,,,,008,001,2023-11-19_13h35.59.674,ETproject_Chi_2023.1.1,2023.1.1,60.01842565723753,
49,Month,七月,四月,,Hori,late,left,image/Chi_late.png,"[-0.4, 0]","[0.4, 0]",3,incongruent,,,,,,,,,,,,,,0,28,28,38,,,,,,,,,,,,,,,,,,,,,,,,,,,,,,,,,,,,,,,,,,,,,,,,,,,,,252.7272758000181,1.011485300026834,253.72736489999807,253.81068210001104,254.610545500007,254.71052449999843,254.71052449999843,254.71052449999843,left,1,0.962665900005959,,,,,,,,,,,,,,,,,,,,,,,,,,,,,,,,,,,,,008,001,2023-11-19_13h35.59.674,ETproject_Chi_2023.1.1,2023.1.1,60.01842565723753,
77,Month,九月 ,七月,,Vert,late,up,image/Chi_late.png,"[0, 0.4]","[0, -0.4]",2,incongruent,,,,,,,,,,,,,,0,29,29,43,,,,,,,,,,,,,,,,,,,,,,,,,,,,,,,,,,,,,,,,,,,,,,,,,,,,,255.70206480001798,1.0120012999977916,256.70981059997575,256.7928522999864,257.5927288000239,257.69272509997245,257.69272509997245,257.69272509997245,up,1,1.1251010000123642,,,,,,,,,,,,,,,,,,,,,,,,,,,,,,,,,,,,,008,001,2023-11-19_13h35.59.674,ETproject_Chi_2023.1.1,2023.1.1,60.01842565723753,
13,Month,四月,七月,,Hori,late,right,image/Chi_late.png,"[-0.4, 0]","[0.4, 0]",3,congruent,,,,,,,,,,,,,,0,30,30,41,,,,,,,,,,,,,,,,,,,,,,,,,,,,,,,,,,,,,,,,,,,,,,,,,,,,,258.8452404999989,0.9995834999717772,259.85868299996946,259.9421420000144,260.7417274999898,260.84179109998513,260.84179109998513,260.84179109998513,right,1,0.91828089999035,,,,,,,,,,,,,,,,,,,,,,,,,,,,,,,,,,,,,008,001,2023-11-19_13h35.59.674,ETproject_Chi_2023.1.1,2023.1.1,60.01842565723753,
75,Month,十月 ,九月 ,,Vert,early,down,image/Chi_early.png,"[0, 0.4]","[0, -0.4]",1,incongruent,,,,,,,,,,,,,,0,31,31,1,,,,,,,,,,,,,,,,,,,,,,,,,,,,,,,,,,,,,,,,,,,,,,,,,,,,,261.7998924999847,1.0155261000036262,262.8078626000206,262.89136150002014,263.6908725000103,263.7908154000179,263.7908154000179,263.7908154000179,down,1,1.482817799958866,,,,,,,,,,,,,,,,,,,,,,,,,,,,,,,,,,,,,008,001,2023-11-19_13h35.59.674,ETproject_Chi_2023.1.1,2023.1.1,60.01842565723753,
45,Month,九月 ,五月,,Hori,late,left,image/Chi_late.png,"[-0.4, 0]","[0.4, 0]",4,incongruent,,,,,,,,,,,,,,0,32,32,39,,,,,,,,,,,,,,,,,,,,,,,,,,,,,,,,,,,,,,,,,,,,,,,,,,,,,265.30205100000603,1.0110142000485212,266.3065772000118,266.3899131999933,267.189553299977,267.2896042999928,267.2896042999928,267.2896042999928,left,1,1.0475956000154838,,,,,,,,,,,,,,,,,,,,,,,,,,,,,,,,,,,,,008,001,2023-11-19_13h35.59.674,ETproject_Chi_2023.1.1,2023.1.1,60.01842565723753,
132,Week,星期四,星期一,,Hori,late,left,image/Chi_late.png,"[-0.4, 0]","[0.4, 0]",3,incongruent,,,,,,,,,,,,,,0,33,33,19,,,,,,,,,,,,,,,,,,,,,,,,,,,,,,,,,,,,,,,,,,,,,,,,,,,,,268.3605348999845,0.9991682999534532,269.3723186000134,269.4557525999844,270.25547919998644,270.35529500001576,270.35529500001576,270.35529500001576,left,1,1.0367322999518365,,,,,,,,,,,,,,,,,,,,,,,,,,,,,,,,,,,,,008,001,2023-11-19_13h35.59.674,ETproject_Chi_2023.1.1,2023.1.1,60.01842565723753,
24,Month,六月,九月 ,,Vert,early,up,image/Chi_early.png,"[0, 0.4]","[0, -0.4]",3,congruent,,,,,,,,,,,,,,0,34,34,33,,,,,,,,,,,,,,,,,,,,,,,,,,,,,,,,,,,,,,,,,,,,,,,,,,,,,271.42935619998025,0.9990830000024289,272.43785819999175,272.52134640002623,273.32095869997283,273.4210760999704,273.4210760999704,273.4210760999704,up,1,1.3565797000192106,,,,,,,,,,,,,,,,,,,,,,,,,,,,,,,,,,,,,008,001,2023-11-19_13h35.59.674,ETproject_Chi_2023.1.1,2023.1.1,60.01842565723753,
20,Month,四月,八月,,Vert,early,up,image/Chi_early.png,"[0, 0.4]","[0, -0.4]",4,congruent,,,,,,,,,,,,,,0,35,35,4,,,,,,,,,,,,,,,,,,,,,,,,,,,,,,,,,,,,,,,,,,,,,,,,,,,,,274.81153950002044,1.012862999981735,275.8203311000252,275.9035035999841,276.703304100025,276.8031908000121,276.8031908000121,276.8031908000121,up,1,1.49375790002523,,,,,,,,,,,,,,,,,,,,,,,,,,,,,,,,,,,,,008,001,2023-11-19_13h35.59.674,ETproject_Chi_2023.1.1,2023.1.1,60.01842565723753,
16,Month,六月,八月,,Hori,late,right,image/Chi_late.png,"[-0.4, 0]","[0.4, 0]",2,congruent,,,,,,,,,,,,,,0,36,36,30,,,,,,,,,,,,,,,,,,,,,,,,,,,,,,,,,,,,,,,,,,,,,,,,,,,,,278.3323454000056,1.0104557999875396,279.3356953000184,279.41908889997285,280.21869810001226,280.31869759998517,280.31869759998517,280.31869759998517,right,1,1.4173936999868602,,,,,,,,,,,,,,,,,,,,,,,,,,,,,,,,,,,,,008,001,2023-11-19_13h35.59.674,ETproject_Chi_2023.1.1,2023.1.1,60.01842565723753,
118,Week,星期一,星期四,,Vert,late,down,image/Chi_late.png,"[0, 0.4]","[0, -0.4]",3,congruent,,,,,,,,,,,,,,0,37,37,45,,,,,,,,,,,,,,,,,,,,,,,,,,,,,,,,,,,,,,,,,,,,,,,,,,,,,281.7778508000192,1.0112275999854319,282.7845050999895,282.8678039999795,283.66773420001846,283.7677087999764,283.7677087999764,283.7677087999764,down,1,1.7045400000060908,,,,,,,,,,,,,,,,,,,,,,,,,,,,,,,,,,,,,008,001,2023-11-19_13h35.59.674,ETproject_Chi_2023.1.1,2023.1.1,60.01842565723753,
126,Week,星期三 ,星期二,,Hori,early,right,image/Chi_early.png,"[-0.4, 0]","[0.4, 0]",1,incongruent,,,,,,,,,,,,,,0,38,38,25,,,,,,,,,,,,,,,,,,,,,,,,,,,,,,,,,,,,,,,,,,,,,,,,,,,,,285.508216599992,1.0153360000113025,286.51647299999604,286.5999586000107,287.39966870000353,287.49966169998515,287.49966169998515,287.49966169998515,left,0,1.6140897999866866,,,,,,,,,,,,,,,,,,,,,,,,,,,,,,,,,,,,,008,001,2023-11-19_13h35.59.674,ETproject_Chi_2023.1.1,2023.1.1,60.01842565723753,
26,Month,六月,八月,,Vert,early,up,image/Chi_early.png,"[0, 0.4]","[0, -0.4]",2,congruent,,,,,,,,,,,,,,0,39,39,32,,,,,,,,,,,,,,,,,,,,,,,,,,,,,,,,,,,,,,,,,,,,,,,,,,,,,289.14212129998486,1.0112961999839172,290.14872820000164,290.23204500001157,291.03182839998044,291.1318073999719,291.1318073999719,291.1318073999719,up,1,1.588962400041055,,,,,,,,,,,,,,,,,,,,,,,,,,,,,,,,,,,,,008,001,2023-11-19_13h35.59.674,ETproject_Chi_2023.1.1,2023.1.1,60.01842565723753,
101,Week,星期五,星期六,,Hori,early,left,image/Chi_early.png,"[-0.4, 0]","[0.4, 0]",1,congruent,,,,,,,,,,,,,,0,40,40,42,,,,,,,,,,,,,,,,,,,,,,,,,,,,,,,,,,,,,,,,,,,,,,,,,,,,,292.75643230002606,1.013076400035061,293.7642802000046,293.8474955999991,294.647350299987,294.74758229998406,294.74758229998406,294.74758229998406,left,1,1.182226900011301,,,,,,,,,,,,,,,,,,,,,,,,,,,,,,,,,,,,,008,001,2023-11-19_13h35.59.674,ETproject_Chi_2023.1.1,2023.1.1,60.01842565723753,
34,Month,六月,二月,,Hori,early,right,image/Chi_early.png,"[-0.4, 0]","[0.4, 0]",4,incongruent,,,,,,,,,,,,,,0,41,41,21,,,,,,,,,,,,,,,,,,,,,,,,,,,,,,,,,,,,,,,,,,,,,,,,,,,,,295.95809269999154,1.0102692000218667,296.96308560000034,297.0467009000131,297.84622950002085,297.94637520000106,297.94637520000106,297.94637520000106,right,1,1.725817599974107,,,,,,,,,,,,,,,,,,,,,,,,,,,,,,,,,,,,,008,001,2023-11-19_13h35.59.674,ETproject_Chi_2023.1.1,2023.1.1,60.01842565723753,
120,Week,星期三 ,星期六,,Vert,late,down,image/Chi_late.png,"[0, 0.4]","[0, -0.4]",3,congruent,,,,,,,,,,,,,,0,42,42,34,,,,,,,,,,,,,,,,,,,,,,,,,,,,,,,,,,,,,,,,,,,,,,,,,,,,,299.70748719997937,1.0151483999798074,300.71190599998226,300.79543870000634,301.5950800999999,301.69499360001646,301.69499360001646,301.69499360001646,down,1,1.1305521999602206,,,,,,,,,,,,,,,,,,,,,,,,,,,,,,,,,,,,,008,001,2023-11-19_13h35.59.674,ETproject_Chi_2023.1.1,2023.1.1,60.01842565723753,
139,Week,星期四,星期一,,Vert,early,down,image/Chi_early.png,"[0, 0.4]","[0, -0.4]",3,incongruent,,,,,,,,,,,,,,0,43,43,7,,,,,,,,,,,,,,,,,,,,,,,,,,,,,,,,,,,,,,,,,,,,,,,,,,,,,302.8524780999869,1.0153092999826185,303.8608947999892,303.9442410999909,304.74383960000705,304.84401140001137,304.84401140001137,304.84401140001137,down,1,1.9012572999927215,,,,,,,,,,,,,,,,,,,,,,,,,,,,,,,,,,,,,008,001,2023-11-19_13h35.59.674,ETproject_Chi_2023.1.1,2023.1.1,60.01842565723753,
136,Week,星期日,星期五,,Hori,late,left,image/Chi_late.png,"[-0.4, 0]","[0.4, 0]",2,incongruent,,,,,,,,,,,,,,0,44,44,17,,,,,,,,,,,,,,,,,,,,,,,,,,,,,,,,,,,,,,,,,,,,,,,,,,,,,306.7920722999843,1.0115377000183798,307.7929946000222,307.8763402000186,308.67604220000794,308.77618510002503,308.77618510002503,308.77618510002503,left,1,1.240615499962587,,,,,,,,,,,,,,,,,,,,,,,,,,,,,,,,,,,,,008,001,2023-11-19_13h35.59.674,ETproject_Chi_2023.1.1,2023.1.1,60.01842565723753,
150,Week,星期日,星期五,,Vert,late,up,image/Chi_late.png,"[0, 0.4]","[0, -0.4]",2,incongruent,,,,,,,,,,,,,,0,45,45,46,,,,,,,,,,,,,,,,,,,,,,,,,,,,,,,,,,,,,,,,,,,,,,,,,,,,,310.0479550000164,1.011634700000286,311.0586312999949,311.1416849999805,311.9415740999975,312.0417293999926,312.0417293999926,312.0417293999926,up,1,1.2555001999717206,,,,,,,,,,,,,,,,,,,,,,,,,,,,,,,,,,,,,008,001,2023-11-19_13h35.59.674,ETproject_Chi_2023.1.1,2023.1.1,60.01842565723753,
107,Week,星期四,星期六,,Hori,late,right,image/Chi_late.png,"[-0.4, 0]","[0.4, 0]",2,congruent,,,,,,,,,,,,,,0,46,46,16,,,,,,,,,,,,,,,,,,,,,,,,,,,,,,,,,,,,,,,,,,,,,,,,,,,,,313.33326679997845,1.010511200001929,314.3407953999704,314.4241287999903,315.2237294000224,315.3238324999693,315.3238324999693,315.3238324999693,right,1,1.245831599982921,,,,,,,,,,,,,,,,,,,,,,,,,,,,,,,,,,,,,008,001,2023-11-19_13h35.59.674,ETproject_Chi_2023.1.1,2023.1.1,60.01842565723753,
101,Week,星期五,星期日,,Hori,early,left,image/Chi_early.png,"[-0.4, 0]","[0.4, 0]",2,congruent,,,,,,,,,,,,,,0,47,47,40,,,,,,,,,,,,,,,,,,,,,,,,,,,,,,,,,,,,,,,,,,,,,,,,,,,,,316.6051554000005,1.0110392000060529,317.60631439997815,317.68971100001363,318.489419599995,318.589415800001,318.589415800001,318.589415800001,left,1,1.3480698999483138,,,,,,,,,,,,,,,,,,,,,,,,,,,,,,,,,,,,,008,001,2023-11-19_13h35.59.674,ETproject_Chi_2023.1.1,2023.1.1,60.01842565723753,
106,Week,星期三 ,星期六,,Hori,late,right,image/Chi_late.png,"[-0.4, 0]","[0.4, 0]",3,congruent,,,,,,,,,,,,,,0,48,48,3,,,,,,,,,,,,,,,,,,,,,,,,,,,,,,,,,,,,,,,,,,,,,,,,,,,,,319.966563199996,1.0124269999796525,320.9718443999882,321.0553821999929,321.8549758999725,321.95500419999007,321.95500419999007,321.95500419999007,right,1,1.101218499999959,,,,,,,,,,,,,,,,,,,,,,,,,,,,,,,,,,,,,008,001,2023-11-19_13h35.59.674,ETproject_Chi_2023.1.1,2023.1.1,60.01842565723753,
58,Month,六月,二月,,Vert,late,up,image/Chi_late.png,"[0, 0.4]","[0, -0.4]",4,incongruent,,,,,,,,,,,,,,0,49,49,18,,,,,,,,,,,,,,,,,,,,,,,,,,,,,,,,,,,,,,,,,,,,,,,,,,,,,323.096736699983,1.011799100029748,324.1041882999707,324.18771430000197,324.9874640000053,325.087341299979,325.087341299979,325.087341299979,up,1,1.1782929000328295,,,,,,,,,,,,,,,,,,,,,,,,,,,,,,,,,,,,,008,001,2023-11-19_13h35.59.674,ETproject_Chi_2023.1.1,2023.1.1,60.01842565723753,
,,,,,,,,,,,,,,,,,,,,,,,,,,,,,,,,,,,,,,,,,,,,,,,,,,,,,,,,,,,,,,,,,,,,,,,,,,,,,,,,,,,,,,,,,,,,,326.287167100003,326.287167100003,space,7.490258599980734,,,,,,,,,,,,,,,,,,,,,,,,,,,,,,,,,008,001,2023-11-19_13h35.59.674,ETproject_Chi_2023.1.1,2023.1.1,60.01842565723753,
,,,,,,,,,,,,,Spring 5.jpg,这是冬天吗？,否,Right,Break_material/Image/Spring 5.jpg,,,,,,,,,,,,,0,0,0,4,,,,,,,,,,,,,,,,,,,,,,,,,,,,,,,,,,,,,,,,,,,,,,,,,,,,,,,,,,,,,,,,334.3229767999728,337.78740159998415,338.3328889000113,339.7990986999939,339.7990986999939,339.7990986999939,339.7990986999939,right,0,0.05002339999191463,,,,,,,,,,,,,,,,,,,,,,,008,001,2023-11-19_13h35.59.674,ETproject_Chi_2023.1.1,2023.1.1,60.01842565723753,
,,,,,,,,,,,,,Spring 4.jpg,这是秋天吗？,否,Right,Break_material/Image/Spring 4.jpg,,,,,,,,,,,,,0,1,1,3,,,,,,,,,,,,,,,,,,,,,,,,,,,,,,,,,,,,,,,,,,,,,,,,,,,,,,,,,,,,,,,,340.25779940001667,343.8522172999801,344.2639850000269,345.86360939999577,345.86360939999577,345.86360939999577,345.86360939999577,right,0,0.9770731999888085,,,,,,,,,,,,,,,,,,,,,,,008,001,2023-11-19_13h35.59.674,ETproject_Chi_2023.1.1,2023.1.1,60.01842565723753,
,,,,,,,,,,,,,Spring 6.jpg,这是春天吗？,是,Left,Break_material/Image/Spring 6.jpg,,,,,,,,,,,,,0,2,2,5,,,,,,,,,,,,,,,,,,,,,,,,,,,,,,,,,,,,,,,,,,,,,,,,,,,,,,,,,,,,,,,,347.5525990999886,350.8509923000238,351.5617301000166,352.8611834999756,352.8611834999756,352.8611834999756,352.8611834999756,left,0,4.851667000039015,,,,,,,,,,,,,,,,,,,,,,,008,001,2023-11-19_13h35.59.674,ETproject_Chi_2023.1.1,2023.1.1,60.01842565723753,
,,,,,,,,,,,,,Spring 1.jpg,这是春天吗？,是,Left,Break_material/Image/Spring 1.jpg,,,,,,,,,,,,,0,3,3,0,,,,,,,,,,,,,,,,,,,,,,,,,,,,,,,,,,,,,,,,,,,,,,,,,,,,,,,,,,,,,,,,357.98848,361.7288111000089,361.99165179999545,363.7409176999936,363.7409176999936,363.7409176999936,363.7409176999936,left,0,0.7799866999848746,,,,,,,,,,,,,,,,,,,,,,,008,001,2023-11-19_13h35.59.674,ETproject_Chi_2023.1.1,2023.1.1,60.01842565723753,
,,,,,,,,,,,,,Spring 3.jpg,这是夏天吗？,否,Right,Break_material/Image/Spring 3.jpg,,,,,,,,,,,,,0,4,4,2,,,,,,,,,,,,,,,,,,,,,,,,,,,,,,,,,,,,,,,,,,,,,,,,,,,,,,,,,,,,,,,,364.5984371000086,368.5273553999723,368.6064078999916,370.5389484000043,370.5389484000043,370.5389484000043,370.5389484000043,right,0,0.5977904999745078,,,,,,,,,,,,,,,,,,,,,,,008,001,2023-11-19_13h35.59.674,ETproject_Chi_2023.1.1,2023.1.1,60.01842565723753,
,,,,,,,,,,,,,Spring 2.jpg,这是冬天吗？,否,Right,Break_material/Image/Spring 2.jpg,,,,,,,,,,,,,0,5,5,1,,,,,,,,,,,,,,,,,,,,,,,,,,,,,,,,,,,,,,,,,,,,,,,,,,,,,,,,,,,,,,,,371.2508314999868,375.1408236999996,375.2540059000021,377.15338009997504,377.15338009997504,377.15338009997504,377.15338009997504,right,0,0.3513242000481114,,,,,,,,,,,,,,,,,,,,,,,008,001,2023-11-19_13h35.59.674,ETproject_Chi_2023.1.1,2023.1.1,60.01842565723753,
,,,,,,,,,,,,,,,,,,,,,,,,,,,,,,,,,,,,,,,,,,,,,,,,,,,,,,,,,,,,,,,,,,,,,,,,,,,,,,,,,,,,,,,,,,,,,,,,,,,,,,,,,,,377.5367497000261,377.5367497000261,space,4.311179800017271,,,,,,,,,,,,,,,,,,,008,001,2023-11-19_13h35.59.674,ETproject_Chi_2023.1.1,2023.1.1,60.01842565723753,
21,Month,五月,九月 ,,Vert,early,up,image/Chi_early.png,"[0, 0.4]","[0, -0.4]",4,congruent,,,,,,,,,,,,,,,,,,,,,,0,0,0,46,,,,,,,,,,,,,,,,,,,,,,,,,,,,,,,,,,,,,,,,,,,,,381.8886030999711,0.9990298000047915,382.90157520002685,382.96818219998386,383.7678934999858,383.86793790000957,383.86793790000957,383.86793790000957,up,1,1.7642248999909498,,,,,,,,,,,,,,,,,,,,,,,,,,,,,,,,,,,,,008,001,2023-11-19_13h35.59.674,ETproject_Chi_2023.1.1,2023.1.1,60.01842565723753,
11,Month,十一月 ,十二月,,Hori,early,left,image/Chi_early.png,"[-0.4, 0]","[0.4, 0]",1,congruent,,,,,,,,,,,,,,,,,,,,,,0,1,1,28,,,,,,,,,,,,,,,,,,,,,,,,,,,,,,,,,,,,,,,,,,,,,385.6607708000229,1.0115082999691367,386.6669457000098,386.75034009997034,387.55006470001535,387.64997239998775,387.64997239998775,387.64997239998775,left,1,1.558668099984061,,,,,,,,,,,,,,,,,,,,,,,,,,,,,,,,,,,,,008,001,2023-11-19_13h35.59.674,ETproject_Chi_2023.1.1,2023.1.1,60.01842565723753,
84,Month,八月,七月,,Vert,late,up,image/Chi_late.png,"[0, 0.4]","[0, -0.4]",1,incongruent,,,,,,,,,,,,,,,,,,,,,,0,2,2,18,,,,,,,,,,,,,,,,,,,,,,,,,,,,,,,,,,,,,,,,,,,,,389.24912440002663,1.0112658999860287,390.24914889998036,390.3324548000237,391.1321400000015,391.23218629998155,391.23218629998155,391.23218629998155,up,1,1.2971473000361584,,,,,,,,,,,,,,,,,,,,,,,,,,,,,,,,,,,,,008,001,2023-11-19_13h35.59.674,ETproject_Chi_2023.1.1,2023.1.1,60.01842565723753,
10,Month,二月,六月,,Hori,late,right,image/Chi_late.png,"[-0.4, 0]","[0.4, 0]",4,congruent,,,,,,,,,,,,,,,,,,,,,,0,3,3,37,,,,,,,,,,,,,,,,,,,,,,,,,,,,,,,,,,,,,,,,,,,,,392.5598180000088,1.012013300030958,393.564807799994,393.64796570001636,394.4477375000133,394.54765030002454,394.54765030002454,394.54765030002454,right,1,0.981663100013975,,,,,,,,,,,,,,,,,,,,,,,,,,,,,,,,,,,,,008,001,2023-11-19_13h35.59.674,ETproject_Chi_2023.1.1,2023.1.1,60.01842565723753,
134,Week,星期五,星期三 ,,Hori,late,left,image/Chi_late.png,"[-0.4, 0]","[0.4, 0]",2,incongruent,,,,,,,,,,,,,,,,,,,,,,0,4,4,47,,,,,,,,,,,,,,,,,,,,,,,,,,,,,,,,,,,,,,,,,,,,,395.55801739997696,1.0102742000017315,396.5636179000139,396.6470077999984,397.446612300002,397.54683269996895,397.54683269996895,397.54683269996895,left,1,0.8221169000025839,,,,,,,,,,,,,,,,,,,,,,,,,,,,,,,,,,,,,008,001,2023-11-19_13h35.59.674,ETproject_Chi_2023.1.1,2023.1.1,60.01842565723753,
16,Month,八月,十二月,,Hori,late,right,image/Chi_late.png,"[-0.4, 0]","[0.4, 0]",4,congruent,,,,,,,,,,,,,,,,,,,,,,0,5,5,27,,,,,,,,,,,,,,,,,,,,,,,,,,,,,,,,,,,,,,,,,,,,,399.401515799982,1.0146852999459952,400.41236670000944,400.49578240001574,401.2955341999768,401.39556530001573,401.39556530001573,401.39556530001573,right,1,0.6846981999697164,,,,,,,,,,,,,,,,,,,,,,,,,,,,,,,,,,,,,008,001,2023-11-19_13h35.59.674,ETproject_Chi_2023.1.1,2023.1.1,60.01842565723753,
61,Month,十月 ,七月,,Vert,early,down,image/Chi_early.png,"[0, 0.4]","[0, -0.4]",3,incongruent,,,,,,,,,,,,,,,,,,,,,,0,6,6,16,,,,,,,,,,,,,,,,,,,,,,,,,,,,,,,,,,,,,,,,,,,,,402.1263880999759,1.0116593000129797,403.12822329998016,403.2114152999711,404.01116130000446,404.1112723000115,404.1112723000115,404.1112723000115,down,1,1.2742751999758184,,,,,,,,,,,,,,,,,,,,,,,,,,,,,,,,,,,,,008,001,2023-11-19_13h35.59.674,ETproject_Chi_2023.1.1,2023.1.1,60.01842565723753,
2,Month,二月,五月,,Hori,early,left,image/Chi_early.png,"[-0.4, 0]","[0.4, 0]",3,congruent,,,,,,,,,,,,,,,,,,,,,,0,7,7,36,,,,,,,,,,,,,,,,,,,,,,,,,,,,,,,,,,,,,,,,,,,,,405.4197506000055,1.0128402999835089,406.4270457000239,406.51052930002334,407.3102340999758,407.4103399000014,407.4103399000014,407.4103399000014,left,1,0.8308609999949113,,,,,,,,,,,,,,,,,,,,,,,,,,,,,,,,,,,,,008,001,2023-11-19_13h35.59.674,ETproject_Chi_2023.1.1,2023.1.1,60.01842565723753,
13,Month,二月,三月,,Hori,late,right,image/Chi_late.png,"[-0.4, 0]","[0.4, 0]",1,congruent,,,,,,,,,,,,,,,,,,,,,,0,8,8,42,,,,,,,,,,,,,,,,,,,,,,,,,,,,,,,,,,,,,,,,,,,,,408.27015029999893,1.0129058999591507,409.27619359997334,409.3596586000058,410.1590773999924,410.25916030001827,410.25916030001827,410.25916030001827,right,1,0.7332376999547705,,,,,,,,,,,,,,,,,,,,,,,,,,,,,,,,,,,,,008,001,2023-11-19_13h35.59.674,ETproject_Chi_2023.1.1,2023.1.1,60.01842565723753,
18,Month,九月 ,十二月,,Hori,late,right,image/Chi_late.png,"[-0.4, 0]","[0.4, 0]",3,congruent,,,,,,,,,,,,,,,,,,,,,,0,9,9,9,,,,,,,,,,,,,,,,,,,,,,,,,,,,,,,,,,,,,,,,,,,,,411.01747810002416,1.0116028999909759,412.02539279998746,412.1087743000244,412.90839890000643,413.0081201000139,413.0081201000139,413.0081201000139,right,1,0.6654629000113346,,,,,,,,,,,,,,,,,,,,,,,,,,,,,,,,,,,,,008,001,2023-11-19_13h35.59.674,ETproject_Chi_2023.1.1,2023.1.1,60.01842565723753,
60,Month,十二月,十月 ,,Hori,late,left,image/Chi_late.png,"[-0.4, 0]","[0.4, 0]",2,incongruent,,,,,,,,,,,,,,,,,,,,,,0,10,10,45,,,,,,,,,,,,,,,,,,,,,,,,,,,,,,,,,,,,,,,,,,,,,413.6973662999808,1.0139003999647684,414.7076519000111,414.79105379997054,415.5908348999801,415.69075489998795,415.69075489998795,415.69075489998795,left,1,0.7585663000354543,,,,,,,,,,,,,,,,,,,,,,,,,,,,,,,,,,,,,008,001,2023-11-19_13h35.59.674,ETproject_Chi_2023.1.1,2023.1.1,60.01842565723753,
65,Month,七月,五月,,Vert,early,down,image/Chi_early.png,"[0, 0.4]","[0, -0.4]",2,incongruent,,,,,,,,,,,,,,,,,,,,,,0,11,11,11,,,,,,,,,,,,,,,,,,,,,,,,,,,,,,,,,,,,,,,,,,,,,417.48215649998747,0.9990709999692626,418.4897055000183,418.57313789997716,419.37301029998343,419.47294379997766,419.47294379997766,419.47294379997766,down,1,1.1922483000089414,,,,,,,,,,,,,,,,,,,,,,,,,,,,,,,,,,,,,008,001,2023-11-19_13h35.59.674,ETproject_Chi_2023.1.1,2023.1.1,60.01842565723753,
72,Month,四月,二月,,Vert,late,up,image/Chi_late.png,"[0, 0.4]","[0, -0.4]",2,incongruent,,,,,,,,,,,,,,,,,,,,,,0,12,12,41,,,,,,,,,,,,,,,,,,,,,,,,,,,,,,,,,,,,,,,,,,,,,420.70416680001654,1.013554600009229,421.7053417999996,421.7886684000259,422.588424400019,422.68838309997227,422.68838309997227,422.68838309997227,up,1,1.057047100039199,,,,,,,,,,,,,,,,,,,,,,,,,,,,,,,,,,,,,008,001,2023-11-19_13h35.59.674,ETproject_Chi_2023.1.1,2023.1.1,60.01842565723753,
55,Month,四月,一月,,Vert,early,down,image/Chi_early.png,"[0, 0.4]","[0, -0.4]",3,incongruent,,,,,,,,,,,,,,,,,,,,,,0,13,13,22,,,,,,,,,,,,,,,,,,,,,,,,,,,,,,,,,,,,,,,,,,,,,423.7852930999943,1.0115446000127122,424.78776049998123,424.8709954000078,425.6705065999995,425.7705203000223,425.7705203000223,425.7705203000223,down,1,0.9431356000131927,,,,,,,,,,,,,,,,,,,,,,,,,,,,,,,,,,,,,008,001,2023-11-19_13h35.59.674,ETproject_Chi_2023.1.1,2023.1.1,60.01842565723753,
21,Month,十月 ,十一月 ,,Hori,late,right,image/Chi_late.png,"[-0.4, 0]","[0.4, 0]",1,congruent,,,,,,,,,,,,,,,,,,,,,,0,14,14,5,,,,,,,,,,,,,,,,,,,,,,,,,,,,,,,,,,,,,,,,,,,,,426.7440910000005,0.999036299996078,427.7533896000241,427.8368047000258,428.6364027999807,428.7364780000062,428.7364780000062,428.7364780000062,right,1,0.7680162999895401,,,,,,,,,,,,,,,,,,,,,,,,,,,,,,,,,,,,,008,001,2023-11-19_13h35.59.674,ETproject_Chi_2023.1.1,2023.1.1,60.01842565723753,
29,Month,五月,九月 ,,Vert,late,down,image/Chi_late.png,"[0, 0.4]","[0, -0.4]",4,congruent,,,,,,,,,,,,,,,,,,,,,,0,15,15,21,,,,,,,,,,,,,,,,,,,,,,,,,,,,,,,,,,,,,,,,,,,,,429.54457219998585,1.011643500009086,430.5524311999907,430.635950899974,431.4355853999732,431.5355127999792,431.5355127999792,431.5355127999792,down,1,1.1622033000458032,,,,,,,,,,,,,,,,,,,,,,,,,,,,,,,,,,,,,008,001,2023-11-19_13h35.59.674,ETproject_Chi_2023.1.1,2023.1.1,60.01842565723753,
48,Month,十月 ,八月,,Hori,early,right,image/Chi_early.png,"[-0.4, 0]","[0.4, 0]",2,incongruent,,,,,,,,,,,,,,,,,,,,,,0,16,16,32,,,,,,,,,,,,,,,,,,,,,,,,,,,,,,,,,,,,,,,,,,,,,432.73024689999875,1.0118519000243396,433.73481519997586,433.81806999997934,434.6179648999823,434.7178942000028,434.7178942000028,434.7178942000028,right,1,1.0761019000201486,,,,,,,,,,,,,,,,,,,,,,,,,,,,,,,,,,,,,008,001,2023-11-19_13h35.59.674,ETproject_Chi_2023.1.1,2023.1.1,60.01842565723753,
16,Month,七月,十月 ,,Hori,late,right,image/Chi_late.png,"[-0.4, 0]","[0.4, 0]",3,congruent,,,,,,,,,,,,,,,,,,,,,,0,17,17,43,,,,,,,,,,,,,,,,,,,,,,,,,,,,,,,,,,,,,,,,,,,,,435.8286892999895,1.015113300003577,436.83373399998527,436.9170974000008,437.71687130001374,437.8167865999858,437.8167865999858,437.8167865999858,right,1,1.1602868000045419,,,,,,,,,,,,,,,,,,,,,,,,,,,,,,,,,,,,,008,001,2023-11-19_13h35.59.674,ETproject_Chi_2023.1.1,2023.1.1,60.01842565723753,
1,Month,一月,四月,,Hori,early,left,image/Chi_early.png,"[-0.4, 0]","[0.4, 0]",3,congruent,,,,,,,,,,,,,,,,,,,,,,0,18,18,34,,,,,,,,,,,,,,,,,,,,,,,,,,,,,,,,,,,,,,,,,,,,,439.0136080000084,1.013882700004615,440.0160337999696,440.0992499999702,440.8991455999785,440.99907959997654,440.99907959997654,440.99907959997654,left,1,0.6261723000206985,,,,,,,,,,,,,,,,,,,,,,,,,,,,,,,,,,,,,008,001,2023-11-19_13h35.59.674,ETproject_Chi_2023.1.1,2023.1.1,60.01842565723753,
7,Month,七月,十一月 ,,Hori,early,left,image/Chi_early.png,"[-0.4, 0]","[0.4, 0]",4,congruent,,,,,,,,,,,,,,,,,,,,,,0,19,19,49,,,,,,,,,,,,,,,,,,,,,,,,,,,,,,,,,,,,,,,,,,,,,441.65758459997596,1.0116455999668688,442.66508279996924,442.7486719000153,443.54825459996937,443.64824559999397,443.64824559999397,443.64824559999397,left,1,0.6732091000303626,,,,,,,,,,,,,,,,,,,,,,,,,,,,,,,,,,,,,008,001,2023-11-19_13h35.59.674,ETproject_Chi_2023.1.1,2023.1.1,60.01842565723753,
43,Month,十月 ,七月,,Hori,early,right,image/Chi_early.png,"[-0.4, 0]","[0.4, 0]",3,incongruent,,,,,,,,,,,,,,,,,,,,,,0,20,20,7,,,,,,,,,,,,,,,,,,,,,,,,,,,,,,,,,,,,,,,,,,,,,444.35584580001887,1.0118722000042908,445.3642871999764,445.4476372000063,446.24731459998293,446.347399100021,446.347399100021,446.347399100021,right,1,0.869187599979341,,,,,,,,,,,,,,,,,,,,,,,,,,,,,,,,,,,,,008,001,2023-11-19_13h35.59.674,ETproject_Chi_2023.1.1,2023.1.1,60.01842565723753,
4,Month,四月,六月,,Hori,early,left,image/Chi_early.png,"[-0.4, 0]","[0.4, 0]",2,congruent,,,,,,,,,,,,,,,,,,,,,,0,21,21,20,,,,,,,,,,,,,,,,,,,,,,,,,,,,,,,,,,,,,,,,,,,,,447.2520134000224,1.0156737999641337,448.2633204999729,448.3466876000166,449.14638460002607,449.24631399998907,449.24631399998907,449.24631399998907,left,1,0.6432401000056416,,,,,,,,,,,,,,,,,,,,,,,,,,,,,,,,,,,,,008,001,2023-11-19_13h35.59.674,ETproject_Chi_2023.1.1,2023.1.1,60.01842565723753,
108,Week,星期五,星期六,,Hori,late,right,image/Chi_late.png,"[-0.4, 0]","[0.4, 0]",1,congruent,,,,,,,,,,,,,,,,,,,,,,0,22,22,1,,,,,,,,,,,,,,,,,,,,,,,,,,,,,,,,,,,,,,,,,,,,,449.9265876999707,1.0124672999954782,450.9290753999958,451.01269950001733,451.81205399998,451.9121624000254,451.9121624000254,451.9121624000254,right,1,1.192656600032933,,,,,,,,,,,,,,,,,,,,,,,,,,,,,,,,,,,,,008,001,2023-11-19_13h35.59.674,ETproject_Chi_2023.1.1,2023.1.1,60.01842565723753,
39,Month,九月 ,十一月 ,,Vert,late,down,image/Chi_late.png,"[0, 0.4]","[0, -0.4]",2,congruent,,,,,,,,,,,,,,,,,,,,,,0,23,23,14,,,,,,,,,,,,,,,,,,,,,,,,,,,,,,,,,,,,,,,,,,,,,453.137048900011,1.0128014999791048,454.14472669997485,454.22801540000364,455.0278688999824,455.1278019999736,455.1278019999736,455.1278019999736,down,1,1.0093002000357956,,,,,,,,,,,,,,,,,,,,,,,,,,,,,,,,,,,,,008,001,2023-11-19_13h35.59.674,ETproject_Chi_2023.1.1,2023.1.1,60.01842565723753,
70,Month,十月 ,七月,,Vert,late,up,image/Chi_late.png,"[0, 0.4]","[0, -0.4]",3,incongruent,,,,,,,,,,,,,,,,,,,,,,0,24,24,19,,,,,,,,,,,,,,,,,,,,,,,,,,,,,,,,,,,,,,,,,,,,,456.16975409997394,1.0110670999856666,457.1769118999946,457.26023529999657,458.0601182000246,458.1603503000224,458.1603503000224,458.1603503000224,up,1,1.5363661000155844,,,,,,,,,,,,,,,,,,,,,,,,,,,,,,,,,,,,,008,001,2023-11-19_13h35.59.674,ETproject_Chi_2023.1.1,2023.1.1,60.01842565723753,
126,Week,星期五,星期二,,Hori,early,right,image/Chi_early.png,"[-0.4, 0]","[0.4, 0]",3,incongruent,,,,,,,,,,,,,,,,,,,,,,0,25,25,17,,,,,,,,,,,,,,,,,,,,,,,,,,,,,,,,,,,,,,,,,,,,,459.734156600025,1.014980399981141,460.74248209997313,460.82581509999,461.6255689000245,461.72555749997264,461.72555749997264,461.72555749997264,right,1,1.131485200021416,,,,,,,,,,,,,,,,,,,,,,,,,,,,,,,,,,,,,008,001,2023-11-19_13h35.59.674,ETproject_Chi_2023.1.1,2023.1.1,60.01842565723753,
57,Month,三月,二月,,Hori,late,left,image/Chi_late.png,"[-0.4, 0]","[0.4, 0]",1,incongruent,,,,,,,,,,,,,,,,,,,,,,0,26,26,13,,,,,,,,,,,,,,,,,,,,,,,,,,,,,,,,,,,,,,,,,,,,,462.8898304000031,1.0113432999933138,463.8915010999772,463.97477670002263,464.77441219997127,464.87436730001355,464.87436730001355,464.87436730001355,left,1,0.8858887000242248,,,,,,,,,,,,,,,,,,,,,,,,,,,,,,,,,,,,,008,001,2023-11-19_13h35.59.674,ETproject_Chi_2023.1.1,2023.1.1,60.01842565723753,
34,Month,四月,六月,,Vert,late,down,image/Chi_late.png,"[0, 0.4]","[0, -0.4]",2,congruent,,,,,,,,,,,,,,,,,,,,,,0,27,27,38,,,,,,,,,,,,,,,,,,,,,,,,,,,,,,,,,,,,,,,,,,,,,465.80000109999673,1.0121688999934122,466.80716929998016,466.8908145999885,467.690513700014,467.79015519999666,467.79015519999666,467.79015519999666,down,1,0.9306054000044242,,,,,,,,,,,,,,,,,,,,,,,,,,,,,,,,,,,,,008,001,2023-11-19_13h35.59.674,ETproject_Chi_2023.1.1,2023.1.1,60.01842565723753,
126,Week,星期四,星期二,,Hori,early,right,image/Chi_early.png,"[-0.4, 0]","[0.4, 0]",2,incongruent,,,,,,,,,,,,,,,,,,,,,,0,28,28,24,,,,,,,,,,,,,,,,,,,,,,,,,,,,,,,,,,,,,,,,,,,,,468.75555499998154,1.0094164999900386,469.7561693000025,469.83965580002405,470.6392718999996,470.7393186999834,470.7393186999834,470.7393186999834,right,1,1.230063800001517,,,,,,,,,,,,,,,,,,,,,,,,,,,,,,,,,,,,,008,001,2023-11-19_13h35.59.674,ETproject_Chi_2023.1.1,2023.1.1,60.01842565723753,
42,Month,九月 ,十月 ,,Vert,late,down,image/Chi_late.png,"[0, 0.4]","[0, -0.4]",1,congruent,,,,,,,,,,,,,,,,,,,,,,0,29,29,0,,,,,,,,,,,,,,,,,,,,,,,,,,,,,,,,,,,,,,,,,,,,,471.9993677000166,1.0120943000074476,473.0051016000216,473.0885595,473.88839049998205,473.9881471999688,473.9881471999688,473.9881471999688,down,1,1.045335899980273,,,,,,,,,,,,,,,,,,,,,,,,,,,,,,,,,,,,,008,001,2023-11-19_13h35.59.674,ETproject_Chi_2023.1.1,2023.1.1,60.01842565723753,
26,Month,八月,十一月 ,,Vert,early,up,image/Chi_early.png,"[0, 0.4]","[0, -0.4]",3,congruent,,,,,,,,,,,,,,,,,,,,,,0,30,30,44,,,,,,,,,,,,,,,,,,,,,,,,,,,,,,,,,,,,,,,,,,,,,476.0662945000222,1.0151288999477401,477.07039700000314,477.15402900002664,477.9537984000053,478.05370290001156,478.05370290001156,478.05370290001156,up,1,1.0192564000026323,,,,,,,,,,,,,,,,,,,,,,,,,,,,,,,,,,,,,008,001,2023-11-19_13h35.59.674,ETproject_Chi_2023.1.1,2023.1.1,60.01842565723753,
25,Month,一月,五月,,Vert,late,down,image/Chi_late.png,"[0, 0.4]","[0, -0.4]",4,congruent,,,,,,,,,,,,,,,,,,,,,,0,31,31,23,,,,,,,,,,,,,,,,,,,,,,,,,,,,,,,,,,,,,,,,,,,,,479.11453720001737,1.0153193000005558,480.11943050002446,480.20285320002586,481.00250559998676,481.10251399996923,481.10251399996923,481.10251399996923,down,1,1.3473678999580443,,,,,,,,,,,,,,,,,,,,,,,,,,,,,,,,,,,,,008,001,2023-11-19_13h35.59.674,ETproject_Chi_2023.1.1,2023.1.1,60.01842565723753,
114,Week,星期四,星期五,,Vert,early,up,image/Chi_early.png,"[0, 0.4]","[0, -0.4]",1,congruent,,,,,,,,,,,,,,,,,,,,,,0,32,32,10,,,,,,,,,,,,,,,,,,,,,,,,,,,,,,,,,,,,,,,,,,,,,483.4763849999872,1.014677600003779,484.48475210001925,484.56797299999744,485.36781530000735,485.4678341000108,485.4678341000108,485.4678341000108,up,1,1.2683755000471137,,,,,,,,,,,,,,,,,,,,,,,,,,,,,,,,,,,,,008,001,2023-11-19_13h35.59.674,ETproject_Chi_2023.1.1,2023.1.1,60.01842565723753,
123,Week,星期六,星期日,,Vert,late,down,image/Chi_late.png,"[0, 0.4]","[0, -0.4]",1,congruent,,,,,,,,,,,,,,,,,,,,,,0,33,33,31,,,,,,,,,,,,,,,,,,,,,,,,,,,,,,,,,,,,,,,,,,,,,486.779663000023,1.0154762999736704,487.78368400002364,487.8669946999871,488.66685249999864,488.7667422000086,488.7667422000086,488.7667422000086,down,1,1.4892424999852665,,,,,,,,,,,,,,,,,,,,,,,,,,,,,,,,,,,,,008,001,2023-11-19_13h35.59.674,ETproject_Chi_2023.1.1,2023.1.1,60.01842565723753,
14,Month,四月,六月,,Hori,late,right,image/Chi_late.png,"[-0.4, 0]","[0.4, 0]",2,congruent,,,,,,,,,,,,,,,,,,,,,,0,34,34,26,,,,,,,,,,,,,,,,,,,,,,,,,,,,,,,,,,,,,,,,,,,,,490.2915021000081,1.0111634000204504,491.2990958999726,491.3826081000152,492.1823498000158,492.2822250999743,492.2822250999743,492.2822250999743,right,1,0.9027969000162557,,,,,,,,,,,,,,,,,,,,,,,,,,,,,,,,,,,,,008,001,2023-11-19_13h35.59.674,ETproject_Chi_2023.1.1,2023.1.1,60.01842565723753,
82,Month,六月,五月,,Vert,late,up,image/Chi_late.png,"[0, 0.4]","[0, -0.4]",1,incongruent,,,,,,,,,,,,,,,,,,,,,,0,35,35,33,,,,,,,,,,,,,,,,,,,,,,,,,,,,,,,,,,,,,,,,,,,,,493.21983339998405,1.0158756999881007,494.2314595999778,494.31498129997635,495.1145452000201,495.214547200012,495.214547200012,495.214547200012,up,1,1.498950099979993,,,,,,,,,,,,,,,,,,,,,,,,,,,,,,,,,,,,,008,001,2023-11-19_13h35.59.674,ETproject_Chi_2023.1.1,2023.1.1,60.01842565723753,
111,Week,星期一,星期三 ,,Vert,early,up,image/Chi_early.png,"[0, 0.4]","[0, -0.4]",2,congruent,,,,,,,,,,,,,,,,,,,,,,0,36,36,8,,,,,,,,,,,,,,,,,,,,,,,,,,,,,,,,,,,,,,,,,,,,,496.7428762000054,1.010635300015565,497.74697480001487,497.8304906000267,498.6300077000051,498.72998740000185,498.72998740000185,498.72998740000185,up,1,1.1592164000030607,,,,,,,,,,,,,,,,,,,,,,,,,,,,,,,,,,,,,008,001,2023-11-19_13h35.59.674,ETproject_Chi_2023.1.1,2023.1.1,60.01842565723753,
6,Month,六月,九月 ,,Hori,early,left,image/Chi_early.png,"[-0.4, 0]","[0.4, 0]",3,congruent,,,,,,,,,,,,,,,,,,,,,,0,37,37,25,,,,,,,,,,,,,,,,,,,,,,,,,,,,,,,,,,,,,,,,,,,,,499.9209195000003,1.012375799997244,500.9294203000027,501.0126150000142,501.8124946000171,501.91242000000784,501.91242000000784,501.91242000000784,left,1,0.87270130001707,,,,,,,,,,,,,,,,,,,,,,,,,,,,,,,,,,,,,008,001,2023-11-19_13h35.59.674,ETproject_Chi_2023.1.1,2023.1.1,60.01842565723753,
53,Month,五月,三月,,Hori,late,left,image/Chi_late.png,"[-0.4, 0]","[0.4, 0]",2,incongruent,,,,,,,,,,,,,,,,,,,,,,0,38,38,2,,,,,,,,,,,,,,,,,,,,,,,,,,,,,,,,,,,,,,,,,,,,,502.82102129998384,0.9990220000036061,503.8284905999899,503.9115790000069,504.71133680001367,504.8115619000164,504.8115619000164,504.8115619000164,left,1,1.3489746999694034,,,,,,,,,,,,,,,,,,,,,,,,,,,,,,,,,,,,,008,001,2023-11-19_13h35.59.674,ETproject_Chi_2023.1.1,2023.1.1,60.01842565723753,
102,Week,星期六,星期日,,Hori,early,left,image/Chi_early.png,"[-0.4, 0]","[0.4, 0]",1,congruent,,,,,,,,,,,,,,,,,,,,,,0,39,39,15,,,,,,,,,,,,,,,,,,,,,,,,,,,,,,,,,,,,,,,,,,,,,506.19175280001946,1.0118351999553852,507.1940883999923,507.2774221000145,508.07693450001534,508.1770631999825,508.1770631999825,508.1770631999825,left,1,1.1352420000475831,,,,,,,,,,,,,,,,,,,,,,,,,,,,,,,,,,,,,008,001,2023-11-19_13h35.59.674,ETproject_Chi_2023.1.1,2023.1.1,60.01842565723753,
99,Week,星期三 ,星期五,,Hori,early,left,image/Chi_early.png,"[-0.4, 0]","[0.4, 0]",2,congruent,,,,,,,,,,,,,,,,,,,,,,0,40,40,3,,,,,,,,,,,,,,,,,,,,,,,,,,,,,,,,,,,,,,,,,,,,,510.3482214999967,1.0147741999826394,511.35924259998137,511.4423931000056,512.2422521999688,512.3421723999782,512.3421723999782,512.3421723999782,left,1,0.9218908000038937,,,,,,,,,,,,,,,,,,,,,,,,,,,,,,,,,,,,,008,001,2023-11-19_13h35.59.674,ETproject_Chi_2023.1.1,2023.1.1,60.01842565723753,
68,Month,十月 ,八月,,Vert,early,down,image/Chi_early.png,"[0, 0.4]","[0, -0.4]",2,incongruent,,,,,,,,,,,,,,,,,,,,,,0,41,41,48,,,,,,,,,,,,,,,,,,,,,,,,,,,,,,,,,,,,,,,,,,,,,513.3001920999959,1.012068999989424,514.3081431000028,514.3917459999793,515.1911177000147,515.2913727000123,515.2913727000123,515.2913727000123,up,0,1.0852523999637924,,,,,,,,,,,,,,,,,,,,,,,,,,,,,,,,,,,,,008,001,2023-11-19_13h35.59.674,ETproject_Chi_2023.1.1,2023.1.1,60.01842565723753,
23,Month,一月,二月 ,,Vert,early,up,image/Chi_early.png,"[0, 0.4]","[0, -0.4]",1,congruent,,,,,,,,,,,,,,,,,,,,,,0,42,42,30,,,,,,,,,,,,,,,,,,,,,,,,,,,,,,,,,,,,,,,,,,,,,517.4128990999889,0.9990132000530139,518.423493499984,518.5069043000112,519.306737100007,519.4066110000131,519.4066110000131,519.4066110000131,up,1,0.8658349000033922,,,,,,,,,,,,,,,,,,,,,,,,,,,,,,,,,,,,,008,001,2023-11-19_13h35.59.674,ETproject_Chi_2023.1.1,2023.1.1,60.01842565723753,
59,Month,五月,四月,,Hori,late,left,image/Chi_late.png,"[-0.4, 0]","[0.4, 0]",1,incongruent,,,,,,,,,,,,,,,,,,,,,,0,43,43,12,,,,,,,,,,,,,,,,,,,,,,,,,,,,,,,,,,,,,,,,,,,,,520.3077277999837,1.010985000000801,521.3226163000218,521.3892806000076,522.1888890999835,522.2889529999811,522.2889529999811,522.2889529999811,left,1,0.8887603000039235,,,,,,,,,,,,,,,,,,,,,,,,,,,,,,,,,,,,,008,001,2023-11-19_13h35.59.674,ETproject_Chi_2023.1.1,2023.1.1,60.01842565723753,
57,Month,六月,三月,,Vert,early,down,image/Chi_early.png,"[0, 0.4]","[0, -0.4]",3,incongruent,,,,,,,,,,,,,,,,,,,,,,0,44,44,4,,,,,,,,,,,,,,,,,,,,,,,,,,,,,,,,,,,,,,,,,,,,,523.2167085999972,1.0117065000231378,524.2215435000253,524.3050035000197,525.1046687000198,525.2046323000104,525.2046323000104,525.2046323000104,down,1,0.9011975000030361,,,,,,,,,,,,,,,,,,,,,,,,,,,,,,,,,,,,,008,001,2023-11-19_13h35.59.674,ETproject_Chi_2023.1.1,2023.1.1,60.01842565723753,
141,Week,星期六,星期三 ,,Vert,early,down,image/Chi_early.png,"[0, 0.4]","[0, -0.4]",3,incongruent,,,,,,,,,,,,,,,,,,,,,,0,45,45,29,,,,,,,,,,,,,,,,,,,,,,,,,,,,,,,,,,,,,,,,,,,,,526.1446736999787,1.0130128000164405,527.1538018999854,527.237351000018,528.0371117999894,528.1371344000218,528.1371344000218,528.1371344000218,down,1,0.8966911999741569,,,,,,,,,,,,,,,,,,,,,,,,,,,,,,,,,,,,,008,001,2023-11-19_13h35.59.674,ETproject_Chi_2023.1.1,2023.1.1,60.01842565723753,
142,Week,星期日,星期四,,Vert,early,down,image/Chi_early.png,"[0, 0.4]","[0, -0.4]",3,incongruent,,,,,,,,,,,,,,,,,,,,,,0,46,46,35,,,,,,,,,,,,,,,,,,,,,,,,,,,,,,,,,,,,,,,,,,,,,529.061702099978,1.011537500016857,530.0697622000007,530.1531455999939,530.9527909000171,531.0531271999935,531.0531271999935,531.0531271999935,down,1,0.8189743999973871,,,,,,,,,,,,,,,,,,,,,,,,,,,,,,,,,,,,,008,001,2023-11-19_13h35.59.674,ETproject_Chi_2023.1.1,2023.1.1,60.01842565723753,
46,Month,八月,六月,,Hori,early,right,image/Chi_early.png,"[-0.4, 0]","[0.4, 0]",2,incongruent,,,,,,,,,,,,,,,,,,,,,,0,47,47,6,,,,,,,,,,,,,,,,,,,,,,,,,,,,,,,,,,,,,,,,,,,,,531.9103883000207,1.0135876999702305,532.9187736000167,533.0021124000195,533.801707000006,533.9018845999963,533.9018845999963,533.9018845999963,right,1,0.9861966000171378,,,,,,,,,,,,,,,,,,,,,,,,,,,,,,,,,,,,,008,001,2023-11-19_13h35.59.674,ETproject_Chi_2023.1.1,2023.1.1,60.01842565723753,
98,Week,星期二,星期五,,Hori,early,left,image/Chi_early.png,"[-0.4, 0]","[0.4, 0]",3,congruent,,,,,,,,,,,,,,,,,,,,,,0,48,48,39,,,,,,,,,,,,,,,,,,,,,,,,,,,,,,,,,,,,,,,,,,,,,534.9281141000101,1.0113520000013523,535.9344064000179,536.0178562999936,536.8174326000153,536.9173309999751,536.9173309999751,536.9173309999751,left,1,0.892034100019373,,,,,,,,,,,,,,,,,,,,,,,,,,,,,,,,,,,,,008,001,2023-11-19_13h35.59.674,ETproject_Chi_2023.1.1,2023.1.1,60.01842565723753,
39,Month,十一月 ,七月,,Hori,early,right,image/Chi_early.png,"[-0.4, 0]","[0.4, 0]",4,incongruent,,,,,,,,,,,,,,,,,,,,,,0,49,49,40,,,,,,,,,,,,,,,,,,,,,,,,,,,,,,,,,,,,,,,,,,,,,537.8381678999867,1.0156511000241153,538.8503561000107,538.9333900000202,539.7331455000094,539.8332203999744,539.8332203999744,539.8332203999744,right,1,0.8238820999977179,,,,,,,,,,,,,,,,,,,,,,,,,,,,,,,,,,,,,008,001,2023-11-19_13h35.59.674,ETproject_Chi_2023.1.1,2023.1.1,60.01842565723753,
,,,,,,,,,,,,,,,,,,,,,,,,,,,,,,,,,,,,,,,,,,,,,,,,,,,,,,,,,,,,,,,,,,,,,,,,,,,,,,,,,,,,,,,,,,,,,,,,,,,,,,,,,,,,,,,541.6727568000206,541.6727568000206,space,3.416437499981839,,,,,,,,,,,,,,,008,001,2023-11-19_13h35.59.674,ETproject_Chi_2023.1.1,2023.1.1,60.01842565723753,
,,,,,,,,,,,,,Spring 1.jpg,这是春天吗？,是,Left,Break_material/Image/Spring 1.jpg,,,,,,,,,,,,,,,,,,,,,0,0,0,0,,,,,,,,,,,,,,,,,,,,,,,,,,,,,,,,,,,,,,,,,,,,,,,,,,,,,,,,545.1810402999981,549.0997816000017,549.1801054999814,551.1128923000069,551.1128923000069,551.1128923000069,551.1128923000069,left,0,1.151853299990762,,,,,,,,,,,,,,,,,,,,,,,008,001,2023-11-19_13h35.59.674,ETproject_Chi_2023.1.1,2023.1.1,60.01842565723753,
,,,,,,,,,,,,,Spring 2.jpg,这是冬天吗？,否,Right,Break_material/Image/Spring 2.jpg,,,,,,,,,,,,,,,,,,,,,0,1,1,1,,,,,,,,,,,,,,,,,,,,,,,,,,,,,,,,,,,,,,,,,,,,,,,,,,,,,,,,552.3627865000162,556.2813572000014,556.3610607999726,558.2938425000175,558.2938425000175,558.2938425000175,558.2938425000175,right,0,0.05122630001278594,,,,,,,,,,,,,,,,,,,,,,,008,001,2023-11-19_13h35.59.674,ETproject_Chi_2023.1.1,2023.1.1,60.01842565723753,
,,,,,,,,,,,,,Spring 3.jpg,这是夏天吗？,否,Right,Break_material/Image/Spring 3.jpg,,,,,,,,,,,,,,,,,,,,,0,2,2,2,,,,,,,,,,,,,,,,,,,,,,,,,,,,,,,,,,,,,,,,,,,,,,,,,,,,,,,,558.4385595999775,562.3624675999745,562.442473699979,564.3752980999998,564.3752980999998,564.3752980999998,564.3752980999998,right,0,0.3852430999977514,,,,,,,,,,,,,,,,,,,,,,,008,001,2023-11-19_13h35.59.674,ETproject_Chi_2023.1.1,2023.1.1,60.01842565723753,
,,,,,,,,,,,,,Spring 4.jpg,这是秋天吗？,否,Right,Break_material/Image/Spring 4.jpg,,,,,,,,,,,,,,,,,,,,,0,3,3,3,,,,,,,,,,,,,,,,,,,,,,,,,,,,,,,,,,,,,,,,,,,,,,,,,,,,,,,,565.0208048999775,568.777998399979,569.0238178999862,570.7896630999749,570.7896630999749,570.7896630999749,570.7896630999749,right,0,0.2590369999525137,,,,,,,,,,,,,,,,,,,,,,,008,001,2023-11-19_13h35.59.674,ETproject_Chi_2023.1.1,2023.1.1,60.01842565723753,
,,,,,,,,,,,,,Spring 5.jpg,这是冬天吗？,否,Right,Break_material/Image/Spring 5.jpg,,,,,,,,,,,,,,,,,,,,,0,4,4,4,,,,,,,,,,,,,,,,,,,,,,,,,,,,,,,,,,,,,,,,,,,,,,,,,,,,,,,,571.5459926999756,575.0597562000039,575.5550496000214,577.0706913999747,577.0706913999747,577.0706913999747,577.0706913999747,right,0,0.4902734999777749,,,,,,,,,,,,,,,,,,,,,,,008,001,2023-11-19_13h35.59.674,ETproject_Chi_2023.1.1,2023.1.1,60.01842565723753,
,,,,,,,,,,,,,,,,,,,,,,,,,,,,,,,,,,,,,,,,,,,,,,,,,,,,,,,,,,,,,,,,,,,,,,,,,,,,,,,,,,,,,,,,,,,,,,,,,,,,,,,,,,,,,,,,,,,577.5876516000135,577.5876516000135,space,3.8778138000052422,,,,,,,,,,,008,001,2023-11-19_13h35.59.674,ETproject_Chi_2023.1.1,2023.1.1,60.01842565723753,
11,Month,一月,三月,,Hori,late,right,image/Chi_late.png,"[-0.4, 0]","[0.4, 0]",2,congruent,,,,,,,,,,,,,,,,,,,,,,,,,,,,,,0,0,0,5,,,,,,,,,,,,,,,,,,,,,,,,,,,,,,,,,,,,,581.5035958000226,0.9997330000041984,582.5024752999889,582.5858246000134,583.3856834999751,583.485608500021,583.485608500021,583.485608500021,right,1,1.0515080000041053,,,,,,,,,,,,,,,,,,,,,,,,,,,,,,,,,,,,,008,001,2023-11-19_13h35.59.674,ETproject_Chi_2023.1.1,2023.1.1,60.01842565723753,
69,Month,十一月 ,九月 ,,Vert,early,down,image/Chi_early.png,"[0, 0.4]","[0, -0.4]",2,incongruent,,,,,,,,,,,,,,,,,,,,,,,,,,,,,,0,1,1,32,,,,,,,,,,,,,,,,,,,,,,,,,,,,,,,,,,,,,585.5759696000023,1.0147413999657147,586.5844580999692,586.6677646000171,587.46733949997,587.5674988999963,587.5674988999963,587.5674988999963,down,1,1.4180055999895558,,,,,,,,,,,,,,,,,,,,,,,,,,,,,,,,,,,,,008,001,2023-11-19_13h35.59.674,ETproject_Chi_2023.1.1,2023.1.1,60.01842565723753,
127,Week,星期四,星期三 ,,Hori,early,right,image/Chi_early.png,"[-0.4, 0]","[0.4, 0]",1,incongruent,,,,,,,,,,,,,,,,,,,,,,,,,,,,,,0,2,2,48,,,,,,,,,,,,,,,,,,,,,,,,,,,,,,,,,,,,,589.0362623999827,1.0096488000126556,590.0500343000167,590.1167454000097,590.9164918999886,591.0164988000179,591.0164988000179,591.0164988000179,right,1,0.9758076999569312,,,,,,,,,,,,,,,,,,,,,,,,,,,,,,,,,,,,,008,001,2023-11-19_13h35.59.674,ETproject_Chi_2023.1.1,2023.1.1,60.01842565723753,
12,Month,二月,四月,,Hori,late,right,image/Chi_late.png,"[-0.4, 0]","[0.4, 0]",2,congruent,,,,,,,,,,,,,,,,,,,,,,,,,,,,,,0,3,3,21,,,,,,,,,,,,,,,,,,,,,,,,,,,,,,,,,,,,,592.0294213999878,1.010545099969022,593.0323633999797,593.1156325999764,593.9153025000123,594.0153091999819,594.0153091999819,594.0153091999819,right,1,1.1532220999943092,,,,,,,,,,,,,,,,,,,,,,,,,,,,,,,,,,,,,008,001,2023-11-19_13h35.59.674,ETproject_Chi_2023.1.1,2023.1.1,60.01842565723753,
58,Month,十月 ,八月,,Hori,late,left,image/Chi_late.png,"[-0.4, 0]","[0.4, 0]",2,incongruent,,,,,,,,,,,,,,,,,,,,,,,,,,,,,,0,4,4,26,,,,,,,,,,,,,,,,,,,,,,,,,,,,,,,,,,,,,595.20829889999,1.011219699983485,596.2145852000103,596.2980601000017,597.0977119000163,597.1977096999763,597.1977096999763,597.1977096999763,left,1,1.2507433000137098,,,,,,,,,,,,,,,,,,,,,,,,,,,,,,,,,,,,,008,001,2023-11-19_13h35.59.674,ETproject_Chi_2023.1.1,2023.1.1,60.01842565723753,
8,Month,八月,十二月,,Hori,early,left,image/Chi_early.png,"[-0.4, 0]","[0.4, 0]",4,congruent,,,,,,,,,,,,,,,,,,,,,,,,,,,,,,0,5,5,7,,,,,,,,,,,,,,,,,,,,,,,,,,,,,,,,,,,,,598.4901729999692,1.0131981000304222,599.4968832000159,599.5801799999899,600.3799575999728,600.479894499993,600.479894499993,600.479894499993,left,1,0.7051984999561682,,,,,,,,,,,,,,,,,,,,,,,,,,,,,,,,,,,,,008,001,2023-11-19_13h35.59.674,ETproject_Chi_2023.1.1,2023.1.1,60.01842565723753,
15,Month,七月,十一月 ,,Hori,late,right,image/Chi_late.png,"[-0.4, 0]","[0.4, 0]",4,congruent,,,,,,,,,,,,,,,,,,,,,,,,,,,,,,0,6,6,15,,,,,,,,,,,,,,,,,,,,,,,,,,,,,,,,,,,,,601.2199915000238,0.9990074000088498,602.22927229997,602.3125800999696,603.1121171999839,603.2121515999897,603.2121515999897,603.2121515999897,right,1,0.7078678999678232,,,,,,,,,,,,,,,,,,,,,,,,,,,,,,,,,,,,,008,001,2023-11-19_13h35.59.674,ETproject_Chi_2023.1.1,2023.1.1,60.01842565723753,
122,Week,星期五,星期六,,Vert,late,down,image/Chi_late.png,"[0, 0.4]","[0, -0.4]",1,congruent,,,,,,,,,,,,,,,,,,,,,,,,,,,,,,0,7,7,38,,,,,,,,,,,,,,,,,,,,,,,,,,,,,,,,,,,,,603.9598403999698,1.0086710999603383,604.9616265000077,605.0449793000007,605.8448571999907,605.9447341000196,605.9447341000196,605.9447341000196,down,1,1.0967654999694787,,,,,,,,,,,,,,,,,,,,,,,,,,,,,,,,,,,,,008,001,2023-11-19_13h35.59.674,ETproject_Chi_2023.1.1,2023.1.1,60.01842565723753,
118,Week,星期一,星期三 ,,Vert,late,down,image/Chi_late.png,"[0, 0.4]","[0, -0.4]",2,congruent,,,,,,,,,,,,,,,,,,,,,,,,,,,,,,0,8,8,43,,,,,,,,,,,,,,,,,,,,,,,,,,,,,,,,,,,,,607.0717345000012,1.010812399967108,608.0772660999792,608.1606818999862,608.9603785999934,609.0604059000034,609.0604059000034,609.0604059000034,down,1,1.1808512000134215,,,,,,,,,,,,,,,,,,,,,,,,,,,,,,,,,,,,,008,001,2023-11-19_13h35.59.674,ETproject_Chi_2023.1.1,2023.1.1,60.01842565723753,
47,Month,十一月 ,七月,,Hori,late,left,image/Chi_late.png,"[-0.4, 0]","[0.4, 0]",4,incongruent,,,,,,,,,,,,,,,,,,,,,,,,,,,,,,0,9,9,37,,,,,,,,,,,,,,,,,,,,,,,,,,,,,,,,,,,,,610.2657386999927,1.0142601000261493,611.276289100002,611.3596433000057,612.159386400017,612.2592949999962,612.2592949999962,612.2592949999962,left,1,0.7181461000000127,,,,,,,,,,,,,,,,,,,,,,,,,,,,,,,,,,,,,008,001,2023-11-19_13h35.59.674,ETproject_Chi_2023.1.1,2023.1.1,60.01842565723753,
38,Month,五月,六月,,Vert,late,down,image/Chi_late.png,"[0, 0.4]","[0, -0.4]",1,congruent,,,,,,,,,,,,,,,,,,,,,,,,,,,,,,0,10,10,20,,,,,,,,,,,,,,,,,,,,,,,,,,,,,,,,,,,,,613.0180205000215,1.0108249000040814,614.0254092999967,614.1087341000093,614.9083943999722,615.0083280000254,615.0083280000254,615.0083280000254,down,1,1.6490697000408545,,,,,,,,,,,,,,,,,,,,,,,,,,,,,,,,,,,,,008,001,2023-11-19_13h35.59.674,ETproject_Chi_2023.1.1,2023.1.1,60.01842565723753,
43,Month,五月,三月,,Hori,early,right,image/Chi_early.png,"[-0.4, 0]","[0.4, 0]",2,incongruent,,,,,,,,,,,,,,,,,,,,,,,,,,,,,,0,11,11,16,,,,,,,,,,,,,,,,,,,,,,,,,,,,,,,,,,,,,616.6847116000135,1.0149817999918014,617.6909302999848,617.7743016000022,618.5739128999994,618.67392869998,618.67392869998,618.67392869998,right,1,0.7262537000351585,,,,,,,,,,,,,,,,,,,,,,,,,,,,,,,,,,,,,008,001,2023-11-19_13h35.59.674,ETproject_Chi_2023.1.1,2023.1.1,60.01842565723753,
64,Month,四月,一月,,Vert,late,up,image/Chi_late.png,"[0, 0.4]","[0, -0.4]",3,incongruent,,,,,,,,,,,,,,,,,,,,,,,,,,,,,,0,12,12,24,,,,,,,,,,,,,,,,,,,,,,,,,,,,,,,,,,,,,620.436460500001,0.9991402999730781,621.439576099976,621.5229165999917,622.3226273999899,622.4227564000175,622.4227564000175,622.4227564000175,up,1,0.9063275000080466,,,,,,,,,,,,,,,,,,,,,,,,,,,,,,,,,,,,,008,001,2023-11-19_13h35.59.674,ETproject_Chi_2023.1.1,2023.1.1,60.01842565723753,
9,Month,九月 ,十月 ,,Hori,early,left,image/Chi_early.png,"[-0.4, 0]","[0.4, 0]",1,congruent,,,,,,,,,,,,,,,,,,,,,,,,,,,,,,0,13,13,47,,,,,,,,,,,,,,,,,,,,,,,,,,,,,,,,,,,,,623.3682282000082,1.0108644999563694,624.3720750000211,624.4554321999894,625.2549447999918,625.3553139999858,625.3553139999858,625.3553139999858,left,1,0.7575231000082567,,,,,,,,,,,,,,,,,,,,,,,,,,,,,,,,,,,,,008,001,2023-11-19_13h35.59.674,ETproject_Chi_2023.1.1,2023.1.1,60.01842565723753,
128,Week,星期日,星期四,,Hori,early,right,image/Chi_early.png,"[-0.4, 0]","[0.4, 0]",3,incongruent,,,,,,,,,,,,,,,,,,,,,,,,,,,,,,0,14,14,35,,,,,,,,,,,,,,,,,,,,,,,,,,,,,,,,,,,,,626.1435300000012,1.0145073999883607,627.1544268999714,627.2377884999732,628.0376396999927,628.1374871999724,628.1374871999724,628.1374871999724,right,1,1.3915441000135615,,,,,,,,,,,,,,,,,,,,,,,,,,,,,,,,,,,,,008,001,2023-11-19_13h35.59.674,ETproject_Chi_2023.1.1,2023.1.1,60.01842565723753,
79,Month,十一月 ,九月 ,,Vert,late,up,image/Chi_late.png,"[0, 0.4]","[0, -0.4]",2,incongruent,,,,,,,,,,,,,,,,,,,,,,,,,,,,,,0,15,15,0,,,,,,,,,,,,,,,,,,,,,,,,,,,,,,,,,,,,,629.5615610000095,1.0152066000155173,630.5699634000193,630.6533600999974,631.4529583000112,631.5529082000139,631.5529082000139,631.5529082000139,down,0,1.448017599992454,,,,,,,,,,,,,,,,,,,,,,,,,,,,,,,,,,,,,008,001,2023-11-19_13h35.59.674,ETproject_Chi_2023.1.1,2023.1.1,60.01842565723753,
68,Month,三月,二月,,Vert,early,down,image/Chi_early.png,"[0, 0.4]","[0, -0.4]",1,incongruent,,,,,,,,,,,,,,,,,,,,,,,,,,,,,,0,16,16,46,,,,,,,,,,,,,,,,,,,,,,,,,,,,,,,,,,,,,633.0301319999853,1.0116854999796487,634.0354786000098,634.1186669999734,634.9185418999987,635.018467899994,635.018467899994,635.018467899994,down,1,1.2386472999933176,,,,,,,,,,,,,,,,,,,,,,,,,,,,,,,,,,,,,008,001,2023-11-19_13h35.59.674,ETproject_Chi_2023.1.1,2023.1.1,60.01842565723753,
63,Month,十一月 ,七月,,Vert,late,up,image/Chi_late.png,"[0, 0.4]","[0, -0.4]",4,incongruent,,,,,,,,,,,,,,,,,,,,,,,,,,,,,,0,17,17,3,,,,,,,,,,,,,,,,,,,,,,,,,,,,,,,,,,,,,636.2983850999735,1.0109407000127248,637.3011083999882,637.3844230999821,638.1841881999862,638.2840353000211,638.2840353000211,638.2840353000211,up,1,1.2364617999992333,,,,,,,,,,,,,,,,,,,,,,,,,,,,,,,,,,,,,008,001,2023-11-19_13h35.59.674,ETproject_Chi_2023.1.1,2023.1.1,60.01842565723753,
32,Month,五月,八月,,Vert,late,down,image/Chi_late.png,"[0, 0.4]","[0, -0.4]",3,congruent,,,,,,,,,,,,,,,,,,,,,,,,,,,,,,0,18,18,9,,,,,,,,,,,,,,,,,,,,,,,,,,,,,,,,,,,,,639.5595665000146,1.0112281999900006,640.566930299974,640.6499668000033,641.4496683999896,641.549603899999,641.549603899999,641.549603899999,down,1,0.8593094000243582,,,,,,,,,,,,,,,,,,,,,,,,,,,,,,,,,,,,,008,001,2023-11-19_13h35.59.674,ETproject_Chi_2023.1.1,2023.1.1,60.01842565723753,
143,Week,星期日,星期五,,Vert,early,down,image/Chi_early.png,"[0, 0.4]","[0, -0.4]",2,incongruent,,,,,,,,,,,,,,,,,,,,,,,,,,,,,,0,19,19,22,,,,,,,,,,,,,,,,,,,,,,,,,,,,,,,,,,,,,642.440211899986,1.015423099976033,643.4489961999934,643.5323736999999,644.3321513999836,644.4322000999819,644.4322000999819,644.4322000999819,down,1,1.0323770000250079,,,,,,,,,,,,,,,,,,,,,,,,,,,,,,,,,,,,,008,001,2023-11-19_13h35.59.674,ETproject_Chi_2023.1.1,2023.1.1,60.01842565723753,
3,Month,三月,五月,,Hori,early,left,image/Chi_early.png,"[-0.4, 0]","[0.4, 0]",2,congruent,,,,,,,,,,,,,,,,,,,,,,,,,,,,,,0,20,20,29,,,,,,,,,,,,,,,,,,,,,,,,,,,,,,,,,,,,,645.4907206000062,1.0104070999659598,646.498030000017,646.5813123999978,647.381015299994,647.4810444000177,647.4810444000177,647.4810444000177,left,1,0.8965842999750748,,,,,,,,,,,,,,,,,,,,,,,,,,,,,,,,,,,,,008,001,2023-11-19_13h35.59.674,ETproject_Chi_2023.1.1,2023.1.1,60.01842565723753,
47,Month,九月 ,七月,,Hori,early,right,image/Chi_early.png,"[-0.4, 0]","[0.4, 0]",2,incongruent,,,,,,,,,,,,,,,,,,,,,,,,,,,,,,0,21,21,23,,,,,,,,,,,,,,,,,,,,,,,,,,,,,,,,,,,,,648.4035524000064,1.0142779999878258,649.4137820000178,649.4970910000266,650.2968335999758,650.3966720000026,650.3966720000026,650.3966720000026,right,1,0.892023499996867,,,,,,,,,,,,,,,,,,,,,,,,,,,,,,,,,,,,,008,001,2023-11-19_13h35.59.674,ETproject_Chi_2023.1.1,2023.1.1,60.01842565723753,
33,Month,十一月 ,十二月,,Vert,early,up,image/Chi_early.png,"[0, 0.4]","[0, -0.4]",1,congruent,,,,,,,,,,,,,,,,,,,,,,,,,,,,,,0,22,22,2,,,,,,,,,,,,,,,,,,,,,,,,,,,,,,,,,,,,,651.3226545000216,1.0127881999942474,652.3294693999924,652.4127442999743,653.2124395999708,653.3124160000007,653.3124160000007,653.3124160000007,up,1,1.4088987999712117,,,,,,,,,,,,,,,,,,,,,,,,,,,,,,,,,,,,,008,001,2023-11-19_13h35.59.674,ETproject_Chi_2023.1.1,2023.1.1,60.01842565723753,
61,Month,七月,六月,,Hori,late,left,image/Chi_late.png,"[-0.4, 0]","[0.4, 0]",1,incongruent,,,,,,,,,,,,,,,,,,,,,,,,,,,,,,0,23,23,17,,,,,,,,,,,,,,,,,,,,,,,,,,,,,,,,,,,,,654.7555155999726,1.0153543999767862,655.7616623999784,655.8449291000143,656.6447173000197,656.7448083999916,656.7448083999916,656.7448083999916,left,1,1.3592473000171594,,,,,,,,,,,,,,,,,,,,,,,,,,,,,,,,,,,,,008,001,2023-11-19_13h35.59.674,ETproject_Chi_2023.1.1,2023.1.1,60.01842565723753,
30,Month,三月,六月,,Vert,late,down,image/Chi_late.png,"[0, 0.4]","[0, -0.4]",3,congruent,,,,,,,,,,,,,,,,,,,,,,,,,,,,,,0,24,24,14,,,,,,,,,,,,,,,,,,,,,,,,,,,,,,,,,,,,,658.1299683999969,0.9991902000037953,659.143930500024,659.2271836000145,660.0268674999825,660.1270921999821,660.1270921999821,660.1270921999821,down,1,0.93085110001266,,,,,,,,,,,,,,,,,,,,,,,,,,,,,,,,,,,,,008,001,2023-11-19_13h35.59.674,ETproject_Chi_2023.1.1,2023.1.1,60.01842565723753,
149,Week,星期五,星期四,,Vert,late,up,image/Chi_late.png,"[0, 0.4]","[0, -0.4]",1,incongruent,,,,,,,,,,,,,,,,,,,,,,,,,,,,,,0,25,25,8,,,,,,,,,,,,,,,,,,,,,,,,,,,,,,,,,,,,,661.0812619000208,1.0150163000216708,662.092819100013,662.1761590000242,662.9760259999894,663.0760550000123,663.0760550000123,663.0760550000123,up,1,1.1575119000044651,,,,,,,,,,,,,,,,,,,,,,,,,,,,,,,,,,,,,008,001,2023-11-19_13h35.59.674,ETproject_Chi_2023.1.1,2023.1.1,60.01842565723753,
57,Month,五月,一月,,Vert,late,up,image/Chi_late.png,"[0, 0.4]","[0, -0.4]",4,incongruent,,,,,,,,,,,,,,,,,,,,,,,,,,,,,,0,26,26,25,,,,,,,,,,,,,,,,,,,,,,,,,,,,,,,,,,,,,664.2677524000173,1.0115474999765866,665.275103699998,665.3585421000025,666.1583034999785,666.2580760999699,666.2580760999699,666.2580760999699,up,1,0.9989522999967448,,,,,,,,,,,,,,,,,,,,,,,,,,,,,,,,,,,,,008,001,2023-11-19_13h35.59.674,ETproject_Chi_2023.1.1,2023.1.1,60.01842565723753,
107,Week,星期四,星期日,,Hori,late,right,image/Chi_late.png,"[-0.4, 0]","[0.4, 0]",3,congruent,,,,,,,,,,,,,,,,,,,,,,,,,,,,,,0,27,27,34,,,,,,,,,,,,,,,,,,,,,,,,,,,,,,,,,,,,,667.2856695000082,1.0112975999945775,668.2908266999875,668.3740707000252,669.1741944000241,669.2738825000124,669.2738825000124,669.2738825000124,right,1,0.822800699970685,,,,,,,,,,,,,,,,,,,,,,,,,,,,,,,,,,,,,008,001,2023-11-19_13h35.59.674,ETproject_Chi_2023.1.1,2023.1.1,60.01842565723753,
42,Month,九月 ,六月,,Hori,early,right,image/Chi_early.png,"[-0.4, 0]","[0.4, 0]",3,incongruent,,,,,,,,,,,,,,,,,,,,,,,,,,,,,,0,28,28,4,,,,,,,,,,,,,,,,,,,,,,,,,,,,,,,,,,,,,670.137215099996,1.0121685999911278,671.1400289000012,671.2230798000237,672.0230099000037,672.1228541000164,672.1228541000164,672.1228541000164,right,1,1.2149646999896504,,,,,,,,,,,,,,,,,,,,,,,,,,,,,,,,,,,,,008,001,2023-11-19_13h35.59.674,ETproject_Chi_2023.1.1,2023.1.1,60.01842565723753,
32,Month,十月 ,十一月 ,,Vert,early,up,image/Chi_early.png,"[0, 0.4]","[0, -0.4]",1,congruent,,,,,,,,,,,,,,,,,,,,,,,,,,,,,,0,29,29,44,,,,,,,,,,,,,,,,,,,,,,,,,,,,,,,,,,,,,673.365215400001,1.0111750999931246,674.3722270000144,674.4554803000065,675.255407300021,675.3553679999895,675.3553679999895,675.3553679999895,up,1,1.3099827999831177,,,,,,,,,,,,,,,,,,,,,,,,,,,,,,,,,,,,,008,001,2023-11-19_13h35.59.674,ETproject_Chi_2023.1.1,2023.1.1,60.01842565723753,
36,Month,八月,四月,,Hori,early,right,image/Chi_early.png,"[-0.4, 0]","[0.4, 0]",4,incongruent,,,,,,,,,,,,,,,,,,,,,,,,,,,,,,0,30,30,27,,,,,,,,,,,,,,,,,,,,,,,,,,,,,,,,,,,,,676.6941983000142,1.01429660001304,677.704641600023,677.7878110000165,678.5875578999985,678.6874853000045,678.6874853000045,678.6874853000045,right,1,0.7129394999938086,,,,,,,,,,,,,,,,,,,,,,,,,,,,,,,,,,,,,008,001,2023-11-19_13h35.59.674,ETproject_Chi_2023.1.1,2023.1.1,60.01842565723753,
47,Month,五月,二月,,Hori,late,left,image/Chi_late.png,"[-0.4, 0]","[0.4, 0]",3,incongruent,,,,,,,,,,,,,,,,,,,,,,,,,,,,,,0,31,31,10,,,,,,,,,,,,,,,,,,,,,,,,,,,,,,,,,,,,,679.4330585999996,1.011330600013025,680.4368267999962,680.5201719999895,681.3199122999795,681.4198566999985,681.4198566999985,681.4198566999985,left,1,0.6934932000003755,,,,,,,,,,,,,,,,,,,,,,,,,,,,,,,,,,,,,008,001,2023-11-19_13h35.59.674,ETproject_Chi_2023.1.1,2023.1.1,60.01842565723753,
55,Month,七月,五月,,Hori,late,left,image/Chi_late.png,"[-0.4, 0]","[0.4, 0]",2,incongruent,,,,,,,,,,,,,,,,,,,,,,,,,,,,,,0,32,32,11,,,,,,,,,,,,,,,,,,,,,,,,,,,,,,,,,,,,,682.1469389999984,1.0114497000467964,683.1527381999767,683.2361518000253,684.0357607000042,684.1357793000061,684.1357793000061,684.1357793000061,left,1,0.7453715999727137,,,,,,,,,,,,,,,,,,,,,,,,,,,,,,,,,,,,,008,001,2023-11-19_13h35.59.674,ETproject_Chi_2023.1.1,2023.1.1,60.01842565723753,
107,Week,星期四,星期五,,Hori,late,right,image/Chi_late.png,"[-0.4, 0]","[0.4, 0]",1,congruent,,,,,,,,,,,,,,,,,,,,,,,,,,,,,,0,33,33,19,,,,,,,,,,,,,,,,,,,,,,,,,,,,,,,,,,,,,684.9074284000089,1.0153238999773748,685.9184106999892,686.0016145000118,686.8014470000053,686.9013645999948,686.9013645999948,686.9013645999948,right,1,0.8598112000036053,,,,,,,,,,,,,,,,,,,,,,,,,,,,,,,,,,,,,008,001,2023-11-19_13h35.59.674,ETproject_Chi_2023.1.1,2023.1.1,60.01842565723753,
122,Week,星期五,星期日,,Vert,late,down,image/Chi_late.png,"[0, 0.4]","[0, -0.4]",2,congruent,,,,,,,,,,,,,,,,,,,,,,,,,,,,,,0,34,34,40,,,,,,,,,,,,,,,,,,,,,,,,,,,,,,,,,,,,,687.7931461000117,1.011599000019487,688.8007837000187,688.8841199000017,689.6839738999843,689.7837107999949,689.7837107999949,689.7837107999949,down,1,1.0256957999663427,,,,,,,,,,,,,,,,,,,,,,,,,,,,,,,,,,,,,008,001,2023-11-19_13h35.59.674,ETproject_Chi_2023.1.1,2023.1.1,60.01842565723753,
52,Month,十月 ,七月,,Hori,late,left,image/Chi_late.png,"[-0.4, 0]","[0.4, 0]",3,incongruent,,,,,,,,,,,,,,,,,,,,,,,,,,,,,,0,35,35,41,,,,,,,,,,,,,,,,,,,,,,,,,,,,,,,,,,,,,690.8423318999703,1.011020899983123,691.8499144000234,691.9329629999702,692.7329991000006,692.832665599999,692.832665599999,692.832665599999,left,1,0.6968646000023,,,,,,,,,,,,,,,,,,,,,,,,,,,,,,,,,,,,,008,001,2023-11-19_13h35.59.674,ETproject_Chi_2023.1.1,2023.1.1,60.01842565723753,
76,Month,十一月 ,十月 ,,Vert,early,down,image/Chi_early.png,"[0, 0.4]","[0, -0.4]",1,incongruent,,,,,,,,,,,,,,,,,,,,,,,,,,,,,,0,36,36,1,,,,,,,,,,,,,,,,,,,,,,,,,,,,,,,,,,,,,694.5603273999877,1.0152632999815978,695.5653197999927,695.6486385000171,696.4483431999688,696.5482490999857,696.5482490999857,696.5482490999857,down,1,1.0518359999987297,,,,,,,,,,,,,,,,,,,,,,,,,,,,,,,,,,,,,008,001,2023-11-19_13h35.59.674,ETproject_Chi_2023.1.1,2023.1.1,60.01842565723753,
106,Week,星期三 ,星期五,,Hori,late,right,image/Chi_late.png,"[-0.4, 0]","[0.4, 0]",2,congruent,,,,,,,,,,,,,,,,,,,,,,,,,,,,,,0,37,37,33,,,,,,,,,,,,,,,,,,,,,,,,,,,,,,,,,,,,,698.6454208000214,1.0151254999800585,699.6473034999799,699.7305079000071,700.5301635999931,700.6301170000224,700.6301170000224,700.6301170000224,left,0,0.9151984000345692,,,,,,,,,,,,,,,,,,,,,,,,,,,,,,,,,,,,,008,001,2023-11-19_13h35.59.674,ETproject_Chi_2023.1.1,2023.1.1,60.01842565723753,
31,Month,七月,十一月 ,,Vert,late,down,image/Chi_late.png,"[0, 0.4]","[0, -0.4]",4,congruent,,,,,,,,,,,,,,,,,,,,,,,,,,,,,,0,38,38,6,,,,,,,,,,,,,,,,,,,,,,,,,,,,,,,,,,,,,701.5717393999803,1.011989300022833,702.5795493000187,702.6628605999867,703.4625893000048,703.5626913000015,703.5626913000015,703.5626913000015,down,1,0.9741400000057183,,,,,,,,,,,,,,,,,,,,,,,,,,,,,,,,,,,,,008,001,2023-11-19_13h35.59.674,ETproject_Chi_2023.1.1,2023.1.1,60.01842565723753,
136,Week,星期六,星期五,,Hori,late,left,image/Chi_late.png,"[-0.4, 0]","[0.4, 0]",1,incongruent,,,,,,,,,,,,,,,,,,,,,,,,,,,,,,0,39,39,13,,,,,,,,,,,,,,,,,,,,,,,,,,,,,,,,,,,,,704.5704676000169,1.0118817000184208,705.5786312000128,705.6618591999868,706.4616677999729,706.5616116999881,706.5616116999881,706.5616116999881,left,1,0.7665449000196531,,,,,,,,,,,,,,,,,,,,,,,,,,,,,,,,,,,,,008,001,2023-11-19_13h35.59.674,ETproject_Chi_2023.1.1,2023.1.1,60.01842565723753,
119,Week,星期二,星期四,,Vert,late,down,image/Chi_late.png,"[0, 0.4]","[0, -0.4]",2,congruent,,,,,,,,,,,,,,,,,,,,,,,,,,,,,,0,40,40,45,,,,,,,,,,,,,,,,,,,,,,,,,,,,,,,,,,,,,707.353884799988,1.0107649000128731,708.360824399977,708.444287899998,709.2441308000125,709.3441298999824,709.3441298999824,709.3441298999824,down,1,0.9849691000417806,,,,,,,,,,,,,,,,,,,,,,,,,,,,,,,,,,,,,008,001,2023-11-19_13h35.59.674,ETproject_Chi_2023.1.1,2023.1.1,60.01842565723753,
50,Month,六月,二月,,Vert,early,down,image/Chi_early.png,"[0, 0.4]","[0, -0.4]",4,incongruent,,,,,,,,,,,,,,,,,,,,,,,,,,,,,,0,41,41,30,,,,,,,,,,,,,,,,,,,,,,,,,,,,,,,,,,,,,710.3708618999808,0.9991397999692708,711.3769412999973,711.4597954999772,712.2598158000037,712.3597279000096,712.3597279000096,712.3597279000096,down,1,0.9371771999867633,,,,,,,,,,,,,,,,,,,,,,,,,,,,,,,,,,,,,008,001,2023-11-19_13h35.59.674,ETproject_Chi_2023.1.1,2023.1.1,60.01842565723753,
105,Week,星期二,星期五,,Hori,late,right,image/Chi_late.png,"[-0.4, 0]","[0.4, 0]",3,congruent,,,,,,,,,,,,,,,,,,,,,,,,,,,,,,0,42,42,42,,,,,,,,,,,,,,,,,,,,,,,,,,,,,,,,,,,,,713.3430459999945,1.0114886999945156,714.3423079000204,714.4256454000133,715.2254370999872,715.3253535000258,715.3253535000258,715.3253535000258,right,1,0.8596636000438593,,,,,,,,,,,,,,,,,,,,,,,,,,,,,,,,,,,,,008,001,2023-11-19_13h35.59.674,ETproject_Chi_2023.1.1,2023.1.1,60.01842565723753,
38,Month,十月 ,六月,,Hori,early,right,image/Chi_early.png,"[-0.4, 0]","[0.4, 0]",4,incongruent,,,,,,,,,,,,,,,,,,,,,,,,,,,,,,0,43,43,18,,,,,,,,,,,,,,,,,,,,,,,,,,,,,,,,,,,,,716.2193755999906,1.011669300030917,717.2247497999924,717.3079560999759,718.1079444999923,718.207817699993,718.207817699993,718.207817699993,right,1,0.8814950999803841,,,,,,,,,,,,,,,,,,,,,,,,,,,,,,,,,,,,,008,001,2023-11-19_13h35.59.674,ETproject_Chi_2023.1.1,2023.1.1,60.01842565723753,
51,Month,七月,三月,,Vert,early,down,image/Chi_early.png,"[0, 0.4]","[0, -0.4]",4,incongruent,,,,,,,,,,,,,,,,,,,,,,,,,,,,,,0,44,44,12,,,,,,,,,,,,,,,,,,,,,,,,,,,,,,,,,,,,,719.1165063999943,1.0114278999972157,720.1237716000178,720.2070671999827,721.006712500006,721.1069335999782,721.1069335999782,721.1069335999782,down,1,1.1985923000029288,,,,,,,,,,,,,,,,,,,,,,,,,,,,,,,,,,,,,008,001,2023-11-19_13h35.59.674,ETproject_Chi_2023.1.1,2023.1.1,60.01842565723753,
52,Month,八月,四月,,Vert,early,down,image/Chi_early.png,"[0, 0.4]","[0, -0.4]",4,incongruent,,,,,,,,,,,,,,,,,,,,,,,,,,,,,,0,45,45,31,,,,,,,,,,,,,,,,,,,,,,,,,,,,,,,,,,,,,722.332617099979,1.011015199997928,723.3394347999711,723.4226724000182,724.2223480999819,724.3224576999783,724.3224576999783,724.3224576999783,down,1,0.7981227000127546,,,,,,,,,,,,,,,,,,,,,,,,,,,,,,,,,,,,,008,001,2023-11-19_13h35.59.674,ETproject_Chi_2023.1.1,2023.1.1,60.01842565723753,
133,Week,星期五,星期二,,Hori,late,left,image/Chi_late.png,"[-0.4, 0]","[0.4, 0]",3,incongruent,,,,,,,,,,,,,,,,,,,,,,,,,,,,,,0,46,46,49,,,,,,,,,,,,,,,,,,,,,,,,,,,,,,,,,,,,,726.1469770999975,1.0145925999968313,727.1547925000195,727.2380667999969,728.0377715000068,728.1378041999997,728.1378041999997,728.1378041999997,left,1,0.6707822000025772,,,,,,,,,,,,,,,,,,,,,,,,,,,,,,,,,,,,,008,001,2023-11-19_13h35.59.674,ETproject_Chi_2023.1.1,2023.1.1,60.01842565723753,
50,Month,七月,六月,,Hori,early,right,image/Chi_early.png,"[-0.4, 0]","[0.4, 0]",1,incongruent,,,,,,,,,,,,,,,,,,,,,,,,,,,,,,0,47,47,28,,,,,,,,,,,,,,,,,,,,,,,,,,,,,,,,,,,,,728.8509945999831,1.0109640000155196,729.8539087999961,729.9373113000183,730.7372373000253,730.8372261999757,730.8372261999757,730.8372261999757,right,1,0.9320064000203274,,,,,,,,,,,,,,,,,,,,,,,,,,,,,,,,,,,,,008,001,2023-11-19_13h35.59.674,ETproject_Chi_2023.1.1,2023.1.1,60.01842565723753,
46,Month,三月,二月,,Hori,early,right,image/Chi_early.png,"[-0.4, 0]","[0.4, 0]",1,incongruent,,,,,,,,,,,,,,,,,,,,,,,,,,,,,,0,48,48,36,,,,,,,,,,,,,,,,,,,,,,,,,,,,,,,,,,,,,731.7952121999697,1.0114777999697253,732.8029334999737,732.88620790001,733.6860226999852,733.7860261999886,733.7860261999886,733.7860261999886,right,1,0.7429490000358783,,,,,,,,,,,,,,,,,,,,,,,,,,,,,,,,,,,,,008,001,2023-11-19_13h35.59.674,ETproject_Chi_2023.1.1,2023.1.1,60.01842565723753,
43,Month,七月,三月,,Hori,late,left,image/Chi_late.png,"[-0.4, 0]","[0.4, 0]",4,incongruent,,,,,,,,,,,,,,,,,,,,,,,,,,,,,,0,49,49,39,,,,,,,,,,,,,,,,,,,,,,,,,,,,,,,,,,,,,734.5643231999711,1.0111856000148691,735.5687959999777,735.6519681999926,736.4517151999753,736.551635699987,736.551635699987,736.551635699987,left,1,0.673496300005354,,,,,,,,,,,,,,,,,,,,,,,,,,,,,,,,,,,,,008,001,2023-11-19_13h35.59.674,ETproject_Chi_2023.1.1,2023.1.1,60.01842565723753,
,,,,,,,,,,,,,,,,,,,,,,,,,,,,,,,,,,,,,,,,,,,,,,,,,,,,,,,,,,,,,,,,,,,,,,,,,,,,,,,,,,,,,,,,,,,,,,,,,,,,,,,,,,,,,,,,,,,,,,,738.2419332999852,738.2419332999852,space,2.414136200037319,,,,,,,008,001,2023-11-19_13h35.59.674,ETproject_Chi_2023.1.1,2023.1.1,60.01842565723753,
,,,,,,,,,,,,,Spring 5.jpg,这是冬天吗？,否,Right,Break_material/Image/Spring 5.jpg,,,,,,,,,,,,,,,,,,,,,,,,,,,,,0,0,0,4,,,,,,,,,,,,,,,,,,,,,,,,,,,,,,,,,,,,,,,,,,,,,,,,741.1615731000202,744.6701512999716,745.165643299988,746.6815911000012,746.6815911000012,746.6815911000012,746.6815911000012,right,0,0.44803219998721033,,,,,,,,,,,,,,,,,,,,,,,008,001,2023-11-19_13h35.59.674,ETproject_Chi_2023.1.1,2023.1.1,60.01842565723753,
,,,,,,,,,,,,,Spring 3.jpg,这是夏天吗？,否,Right,Break_material/Image/Spring 3.jpg,,,,,,,,,,,,,,,,,,,,,,,,,,,,,0,1,1,2,,,,,,,,,,,,,,,,,,,,,,,,,,,,,,,,,,,,,,,,,,,,,,,,747.3838398000225,751.1339058000012,751.3798831999884,753.1461182999774,753.1461182999774,753.1461182999774,753.1461182999774,right,0,0.43074699997669086,,,,,,,,,,,,,,,,,,,,,,,008,001,2023-11-19_13h35.59.674,ETproject_Chi_2023.1.1,2023.1.1,60.01842565723753,
,,,,,,,,,,,,,Spring 4.jpg,这是秋天吗？,否,Right,Break_material/Image/Spring 4.jpg,,,,,,,,,,,,,,,,,,,,,,,,,,,,,0,2,2,3,,,,,,,,,,,,,,,,,,,,,,,,,,,,,,,,,,,,,,,,,,,,,,,,753.7957958999905,757.5829644000041,757.7944708999712,759.5938452000264,759.5938452000264,759.5938452000264,759.5938452000264,right,0,1.7585529999923892,,,,,,,,,,,,,,,,,,,,,,,008,001,2023-11-19_13h35.59.674,ETproject_Chi_2023.1.1,2023.1.1,60.01842565723753,
,,,,,,,,,,,,,Spring 1.jpg,这是春天吗？,是,Left,Break_material/Image/Spring 1.jpg,,,,,,,,,,,,,,,,,,,,,,,,,,,,,0,3,3,0,,,,,,,,,,,,,,,,,,,,,,,,,,,,,,,,,,,,,,,,,,,,,,,,761.4441479999805,765.3619027999812,765.4419417000026,767.3747890000232,767.3747890000232,767.3747890000232,767.3747890000232,left,0,0.30570309999166057,,,,,,,,,,,,,,,,,,,,,,,008,001,2023-11-19_13h35.59.674,ETproject_Chi_2023.1.1,2023.1.1,60.01842565723753,
,,,,,,,,,,,,,Spring 2.jpg,这是冬天吗？,否,Right,Break_material/Image/Spring 2.jpg,,,,,,,,,,,,,,,,,,,,,,,,,,,,,0,4,4,1,,,,,,,,,,,,,,,,,,,,,,,,,,,,,,,,,,,,,,,,,,,,,,,,767.7743752999813,771.693543899979,771.7732446999871,773.7062185999821,773.7062185999821,773.7062185999821,773.7062185999821,right,0,0.5272642000345513,,,,,,,,,,,,,,,,,,,,,,,008,001,2023-11-19_13h35.59.674,ETproject_Chi_2023.1.1,2023.1.1,60.01842565723753,
,,,,,,,,,,,,,,,,,,,,,,,,,,,,,,,,,,,,,,,,,,,,,,,,,,,,,,,,,,,,,,,,,,,,,,,,,,,,,,,,,,,,,,,,,,,,,,,,,,,,,,,,,,,,,,,,,,,,,,,,,,,774.2558415000094,774.2558415000094,space,2.9045947999693453,,,008,001,2023-11-19_13h35.59.674,ETproject_Chi_2023.1.1,2023.1.1,60.01842565723753,
112,Week,星期二,星期四,,Vert,early,up,image/Chi_early.png,"[0, 0.4]","[0, -0.4]",2,congruent,,,,,,,,,,,,,,,,,,,,,,,,,,,,,,,,,,,,,,0,0,0,41,,,,,,,,,,,,,,,,,,,,,,,,,,,,,777.2045979999821,0.9994897000142373,778.20457479998,778.2878785000066,779.087470599974,779.187425400014,779.187425400014,779.187425400014,up,1,0.8937560999765992,,,,,,,,,,,,,,,,,,,,,,,,,,,,,,,,,,,,,008,001,2023-11-19_13h35.59.674,ETproject_Chi_2023.1.1,2023.1.1,60.01842565723753,
100,Week,星期四,星期六,,Hori,early,left,image/Chi_early.png,"[-0.4, 0]","[0.4, 0]",2,congruent,,,,,,,,,,,,,,,,,,,,,,,,,,,,,,,,,,,,,,0,1,1,11,,,,,,,,,,,,,,,,,,,,,,,,,,,,,780.1137589999707,1.0111033000284806,781.1200942000141,781.2035194999771,782.003280600009,782.1032085000188,782.1032085000188,782.1032085000188,left,1,0.8898630999610759,,,,,,,,,,,,,,,,,,,,,,,,,,,,,,,,,,,,,008,001,2023-11-19_13h35.59.674,ETproject_Chi_2023.1.1,2023.1.1,60.01842565723753,
3,Month,三月,七月,,Hori,early,left,image/Chi_early.png,"[-0.4, 0]","[0.4, 0]",4,congruent,,,,,,,,,,,,,,,,,,,,,,,,,,,,,,,,,,,,,,0,2,2,49,,,,,,,,,,,,,,,,,,,,,,,,,,,,,783.0282543000067,1.0134662999771535,784.0357121999841,784.1191454000073,784.9189490000135,785.0187655999907,785.0187655999907,785.0187655999907,left,1,1.1578543999930844,,,,,,,,,,,,,,,,,,,,,,,,,,,,,,,,,,,,,008,001,2023-11-19_13h35.59.674,ETproject_Chi_2023.1.1,2023.1.1,60.01842565723753,
125,Week,星期四,星期一,,Hori,early,right,image/Chi_early.png,"[-0.4, 0]","[0.4, 0]",3,incongruent,,,,,,,,,,,,,,,,,,,,,,,,,,,,,,,,,,,,,,0,3,3,31,,,,,,,,,,,,,,,,,,,,,,,,,,,,,786.2078069999698,1.0142221999703906,787.2180992999929,787.3014180000173,788.1013596999692,788.201381299994,788.201381299994,788.201381299994,right,1,0.854682800010778,,,,,,,,,,,,,,,,,,,,,,,,,,,,,,,,,,,,,008,001,2023-11-19_13h35.59.674,ETproject_Chi_2023.1.1,2023.1.1,60.01842565723753,
149,Week,星期六,星期四,,Vert,late,up,image/Chi_late.png,"[0, 0.4]","[0, -0.4]",2,incongruent,,,,,,,,,,,,,,,,,,,,,,,,,,,,,,,,,,,,,,0,4,4,10,,,,,,,,,,,,,,,,,,,,,,,,,,,,,789.0967034000205,1.0106497999513522,790.1007740999921,790.184025799972,790.9837032000069,791.083833599987,791.083833599987,791.083833599987,up,1,1.0777468999731354,,,,,,,,,,,,,,,,,,,,,,,,,,,,,,,,,,,,,008,001,2023-11-19_13h35.59.674,ETproject_Chi_2023.1.1,2023.1.1,60.01842565723753,
39,Month,六月,三月,,Hori,early,right,image/Chi_early.png,"[-0.4, 0]","[0.4, 0]",3,incongruent,,,,,,,,,,,,,,,,,,,,,,,,,,,,,,,,,,,,,,0,5,5,26,,,,,,,,,,,,,,,,,,,,,,,,,,,,,792.1935971999774,1.0119293999741785,793.1997643000213,793.2829554000054,794.082794099988,794.1827404000214,794.1827404000214,794.1827404000214,right,1,0.6663407000014558,,,,,,,,,,,,,,,,,,,,,,,,,,,,,,,,,,,,,008,001,2023-11-19_13h35.59.674,ETproject_Chi_2023.1.1,2023.1.1,60.01842565723753,
139,Week,星期三 ,星期一,,Vert,early,down,image/Chi_early.png,"[0, 0.4]","[0, -0.4]",2,incongruent,,,,,,,,,,,,,,,,,,,,,,,,,,,,,,,,,,,,,,0,6,6,13,,,,,,,,,,,,,,,,,,,,,,,,,,,,,794.8750410000212,1.0111677999957465,795.8822035000194,795.9654327000026,796.7651800999884,796.8653545000125,796.8653545000125,796.8653545000125,down,1,0.9030486000119708,,,,,,,,,,,,,,,,,,,,,,,,,,,,,,,,,,,,,008,001,2023-11-19_13h35.59.674,ETproject_Chi_2023.1.1,2023.1.1,60.01842565723753,
132,Week,星期二,星期一,,Hori,late,left,image/Chi_late.png,"[-0.4, 0]","[0.4, 0]",1,incongruent,,,,,,,,,,,,,,,,,,,,,,,,,,,,,,,,,,,,,,0,7,7,36,,,,,,,,,,,,,,,,,,,,,,,,,,,,,797.804583500023,0.9995050999568775,798.8145816000178,798.8980257000076,799.6975769000128,799.7974621999892,799.7974621999892,799.7974621999892,left,1,0.691936600022018,,,,,,,,,,,,,,,,,,,,,,,,,,,,,,,,,,,,,008,001,2023-11-19_13h35.59.674,ETproject_Chi_2023.1.1,2023.1.1,60.01842565723753,
141,Week,星期四,星期三 ,,Vert,early,down,image/Chi_early.png,"[0, 0.4]","[0, -0.4]",1,incongruent,,,,,,,,,,,,,,,,,,,,,,,,,,,,,,,,,,,,,,0,8,8,7,,,,,,,,,,,,,,,,,,,,,,,,,,,,,800.5223584999912,1.0151624999707565,801.530283399974,801.6137382999877,802.4134039999917,802.5133568000165,802.5133568000165,802.5133568000165,down,1,0.7994903000071645,,,,,,,,,,,,,,,,,,,,,,,,,,,,,,,,,,,,,008,001,2023-11-19_13h35.59.674,ETproject_Chi_2023.1.1,2023.1.1,60.01842565723753,
60,Month,六月,五月,,Hori,late,left,image/Chi_late.png,"[-0.4, 0]","[0.4, 0]",1,incongruent,,,,,,,,,,,,,,,,,,,,,,,,,,,,,,,,,,,,,,0,9,9,43,,,,,,,,,,,,,,,,,,,,,,,,,,,,,803.3441337000113,1.0122334000188857,804.3461926999735,804.4293926000246,805.2290548000019,805.3291887000087,805.3291887000087,805.3291887000087,left,1,0.7191985999816097,,,,,,,,,,,,,,,,,,,,,,,,,,,,,,,,,,,,,008,001,2023-11-19_13h35.59.674,ETproject_Chi_2023.1.1,2023.1.1,60.01842565723753,
135,Week,星期日,星期四,,Hori,late,left,image/Chi_late.png,"[-0.4, 0]","[0.4, 0]",3,incongruent,,,,,,,,,,,,,,,,,,,,,,,,,,,,,,,,,,,,,,0,10,10,12,,,,,,,,,,,,,,,,,,,,,,,,,,,,,806.0871129999869,1.0117475999868475,807.095147199987,807.1783511000103,807.9781822999939,808.0781884000171,808.0781884000171,808.0781884000171,left,1,0.7224461999721825,,,,,,,,,,,,,,,,,,,,,,,,,,,,,,,,,,,,,008,001,2023-11-19_13h35.59.674,ETproject_Chi_2023.1.1,2023.1.1,60.01842565723753,
16,Month,五月,六月,,Hori,late,right,image/Chi_late.png,"[-0.4, 0]","[0.4, 0]",1,congruent,,,,,,,,,,,,,,,,,,,,,,,,,,,,,,,,,,,,,,0,11,11,32,,,,,,,,,,,,,,,,,,,,,,,,,,,,,809.8333780000103,1.0146278000320308,810.84392319998,810.927373500017,811.7269390000147,811.8268369999714,811.8268369999714,811.8268369999714,right,1,0.7824386000283994,,,,,,,,,,,,,,,,,,,,,,,,,,,,,,,,,,,,,008,001,2023-11-19_13h35.59.674,ETproject_Chi_2023.1.1,2023.1.1,60.01842565723753,
3,Month,三月,六月,,Hori,early,left,image/Chi_early.png,"[-0.4, 0]","[0.4, 0]",3,congruent,,,,,,,,,,,,,,,,,,,,,,,,,,,,,,,,,,,,,,0,12,12,0,,,,,,,,,,,,,,,,,,,,,,,,,,,,,812.6381241999916,1.0107837000396103,813.6428821000154,813.7262871999992,814.5260887999902,814.6260830999818,814.6260830999818,814.6260830999818,left,1,0.5995238000177778,,,,,,,,,,,,,,,,,,,,,,,,,,,,,,,,,,,,,008,001,2023-11-19_13h35.59.674,ETproject_Chi_2023.1.1,2023.1.1,60.01842565723753,
74,Month,六月,四月,,Vert,late,up,image/Chi_late.png,"[0, 0.4]","[0, -0.4]",2,incongruent,,,,,,,,,,,,,,,,,,,,,,,,,,,,,,,,,,,,,,0,13,13,27,,,,,,,,,,,,,,,,,,,,,,,,,,,,,815.2501905999961,0.999193700030446,816.2587588999886,816.3422167000244,817.1417677999707,817.2418487999821,817.2418487999821,817.2418487999821,up,1,0.7832419000333175,,,,,,,,,,,,,,,,,,,,,,,,,,,,,,,,,,,,,008,001,2023-11-19_13h35.59.674,ETproject_Chi_2023.1.1,2023.1.1,60.01842565723753,
120,Week,星期三 ,星期四,,Vert,late,down,image/Chi_late.png,"[0, 0.4]","[0, -0.4]",1,congruent,,,,,,,,,,,,,,,,,,,,,,,,,,,,,,,,,,,,,,0,14,14,46,,,,,,,,,,,,,,,,,,,,,,,,,,,,,818.0471051000059,1.0147974999854341,819.05769039999,819.141135199985,819.9409415000118,820.0408277999959,820.0408277999959,820.0408277999959,down,1,1.0079094999819063,,,,,,,,,,,,,,,,,,,,,,,,,,,,,,,,,,,,,008,001,2023-11-19_13h35.59.674,ETproject_Chi_2023.1.1,2023.1.1,60.01842565723753,
67,Month,七月,四月,,Vert,late,up,image/Chi_late.png,"[0, 0.4]","[0, -0.4]",3,incongruent,,,,,,,,,,,,,,,,,,,,,,,,,,,,,,,,,,,,,,0,15,15,6,,,,,,,,,,,,,,,,,,,,,,,,,,,,,821.0814127000049,1.0135054999846034,822.0902649000054,822.1735930999857,822.9731646999717,823.0731754999724,823.0731754999724,823.0731754999724,up,1,0.782813600031659,,,,,,,,,,,,,,,,,,,,,,,,,,,,,,,,,,,,,008,001,2023-11-19_13h35.59.674,ETproject_Chi_2023.1.1,2023.1.1,60.01842565723753,
49,Month,六月,五月,,Hori,early,right,image/Chi_early.png,"[-0.4, 0]","[0.4, 0]",1,incongruent,,,,,,,,,,,,,,,,,,,,,,,,,,,,,,,,,,,,,,0,16,16,20,,,,,,,,,,,,,,,,,,,,,,,,,,,,,823.8875199999893,1.0112893999903463,824.8893663000199,824.9724876999971,825.7722402000218,825.872406599985,825.872406599985,825.872406599985,right,1,0.6410946000250988,,,,,,,,,,,,,,,,,,,,,,,,,,,,,,,,,,,,,008,001,2023-11-19_13h35.59.674,ETproject_Chi_2023.1.1,2023.1.1,60.01842565723753,
48,Month,五月,四月,,Hori,early,right,image/Chi_early.png,"[-0.4, 0]","[0.4, 0]",1,incongruent,,,,,,,,,,,,,,,,,,,,,,,,,,,,,,,,,,,,,,0,17,17,37,,,,,,,,,,,,,,,,,,,,,,,,,,,,,827.5447033999953,1.0153831000206992,828.5547214000253,828.6380867999978,829.4377765000099,829.5378030000138,829.5378030000138,829.5378030000138,right,1,0.7994168999721296,,,,,,,,,,,,,,,,,,,,,,,,,,,,,,,,,,,,,008,001,2023-11-19_13h35.59.674,ETproject_Chi_2023.1.1,2023.1.1,60.01842565723753,
79,Month,三月,二月,,Vert,late,up,image/Chi_late.png,"[0, 0.4]","[0, -0.4]",1,incongruent,,,,,,,,,,,,,,,,,,,,,,,,,,,,,,,,,,,,,,0,18,18,8,,,,,,,,,,,,,,,,,,,,,,,,,,,,,830.3667423999868,1.0110772000043653,831.3704682000098,831.4539240999729,832.2537220999948,832.3537051000167,832.3537051000167,832.3537051000167,up,1,1.1434461000026204,,,,,,,,,,,,,,,,,,,,,,,,,,,,,,,,,,,,,008,001,2023-11-19_13h35.59.674,ETproject_Chi_2023.1.1,2023.1.1,60.01842565723753,
132,Week,星期三 ,星期一,,Hori,late,left,image/Chi_late.png,"[-0.4, 0]","[0.4, 0]",2,incongruent,,,,,,,,,,,,,,,,,,,,,,,,,,,,,,,,,,,,,,0,19,19,2,,,,,,,,,,,,,,,,,,,,,,,,,,,,,833.5286632999778,1.0108128000283614,834.5359756000107,834.6192913000123,835.4190131999785,835.519263299997,835.519263299997,835.519263299997,left,1,1.225281199964229,,,,,,,,,,,,,,,,,,,,,,,,,,,,,,,,,,,,,008,001,2023-11-19_13h35.59.674,ETproject_Chi_2023.1.1,2023.1.1,60.01842565723753,
147,Week,星期五,星期二,,Vert,late,up,image/Chi_late.png,"[0, 0.4]","[0, -0.4]",3,incongruent,,,,,,,,,,,,,,,,,,,,,,,,,,,,,,,,,,,,,,0,20,20,21,,,,,,,,,,,,,,,,,,,,,,,,,,,,,836.7774080000236,1.0124566000304185,837.7849950999953,837.8683153999737,838.6680354999844,838.7679550999892,838.7679550999892,838.7679550999892,up,1,0.7681694999919273,,,,,,,,,,,,,,,,,,,,,,,,,,,,,,,,,,,,,008,001,2023-11-19_13h35.59.674,ETproject_Chi_2023.1.1,2023.1.1,60.01842565723753,
15,Month,六月,九月 ,,Hori,late,right,image/Chi_late.png,"[-0.4, 0]","[0.4, 0]",3,congruent,,,,,,,,,,,,,,,,,,,,,,,,,,,,,,,,,,,,,,0,21,21,42,,,,,,,,,,,,,,,,,,,,,,,,,,,,,839.5757251000032,1.011914600036107,840.5841333999997,840.6672777999775,841.467063500022,841.567215099989,841.567215099989,841.567215099989,right,1,1.6265535000129603,,,,,,,,,,,,,,,,,,,,,,,,,,,,,,,,,,,,,008,001,2023-11-19_13h35.59.674,ETproject_Chi_2023.1.1,2023.1.1,60.01842565723753,
133,Week,星期三 ,星期二,,Hori,late,left,image/Chi_late.png,"[-0.4, 0]","[0.4, 0]",1,incongruent,,,,,,,,,,,,,,,,,,,,,,,,,,,,,,,,,,,,,,0,22,22,30,,,,,,,,,,,,,,,,,,,,,,,,,,,,,843.2253528999863,1.0131158999865875,844.2328817999805,844.3164641999756,845.1158421,845.2159428999876,845.2159428999876,845.2159428999876,left,1,0.6802018000162207,,,,,,,,,,,,,,,,,,,,,,,,,,,,,,,,,,,,,008,001,2023-11-19_13h35.59.674,ETproject_Chi_2023.1.1,2023.1.1,60.01842565723753,
35,Month,五月,七月,,Vert,late,down,image/Chi_late.png,"[0, 0.4]","[0, -0.4]",2,congruent,,,,,,,,,,,,,,,,,,,,,,,,,,,,,,,,,,,,,,0,23,23,4,,,,,,,,,,,,,,,,,,,,,,,,,,,,,845.9255698000197,1.011576899967622,846.9320365000167,847.0156118000159,847.8150551000144,847.9151717000059,847.9151717000059,847.9151717000059,down,1,1.10871339996811,,,,,,,,,,,,,,,,,,,,,,,,,,,,,,,,,,,,,008,001,2023-11-19_13h35.59.674,ETproject_Chi_2023.1.1,2023.1.1,60.01842565723753,
152,Week,星期一,星期二,,Vert,late,up,image/Chi_late.png,"[0, 0.4]","[0, -0.4]",1,incongruent,,,,,,,,,,,,,,,,,,,,,,,,,,,,,,,,,,,,,,0,24,24,45,,,,,,,,,,,,,,,,,,,,,,,,,,,,,849.0581544999732,1.009549500013236,850.0642255999846,850.1477650000015,850.9474217999959,851.0473120000097,851.0473120000097,851.0473120000097,down,0,0.9688465999788605,,,,,,,,,,,,,,,,,,,,,,,,,,,,,,,,,,,,,008,001,2023-11-19_13h35.59.674,ETproject_Chi_2023.1.1,2023.1.1,60.01842565723753,
27,Month,七月,九月 ,,Vert,early,up,image/Chi_early.png,"[0, 0.4]","[0, -0.4]",2,congruent,,,,,,,,,,,,,,,,,,,,,,,,,,,,,,,,,,,,,,0,25,25,17,,,,,,,,,,,,,,,,,,,,,,,,,,,,,853.0557077000267,1.0154882000060752,854.0631041000015,854.1463374000159,854.9460189000238,855.0460132000153,855.0460132000153,855.0460132000153,down,0,1.1869642000528984,,,,,,,,,,,,,,,,,,,,,,,,,,,,,,,,,,,,,008,001,2023-11-19_13h35.59.674,ETproject_Chi_2023.1.1,2023.1.1,60.01842565723753,
138,Week,星期一,星期日,,Hori,late,left,image/Chi_late.png,"[-0.4, 0]","[0.4, 0]",1,incongruent,,,,,,,,,,,,,,,,,,,,,,,,,,,,,,,,,,,,,,0,26,26,18,,,,,,,,,,,,,,,,,,,,,,,,,,,,,856.2693109000102,0.9993113999953493,857.2785196999903,857.3618101999746,858.1615982999792,858.261682100012,858.261682100012,858.261682100012,right,0,1.2262597999651916,,,,,,,,,,,,,,,,,,,,,,,,,,,,,,,,,,,,,008,001,2023-11-19_13h35.59.674,ETproject_Chi_2023.1.1,2023.1.1,60.01842565723753,
74,Month,九月 ,八月,,Vert,early,down,image/Chi_early.png,"[0, 0.4]","[0, -0.4]",1,incongruent,,,,,,,,,,,,,,,,,,,,,,,,,,,,,,,,,,,,,,0,27,27,38,,,,,,,,,,,,,,,,,,,,,,,,,,,,,859.5203275000094,0.999420200008899,860.527488599997,860.6108944999869,861.4106219999958,861.5106126000173,861.5106126000173,861.5106126000173,up,0,1.345364500011783,,,,,,,,,,,,,,,,,,,,,,,,,,,,,,,,,,,,,008,001,2023-11-19_13h35.59.674,ETproject_Chi_2023.1.1,2023.1.1,60.01842565723753,
18,Month,二月,六月,,Vert,early,up,image/Chi_early.png,"[0, 0.4]","[0, -0.4]",4,congruent,,,,,,,,,,,,,,,,,,,,,,,,,,,,,,,,,,,,,,0,28,28,25,,,,,,,,,,,,,,,,,,,,,,,,,,,,,862.8849354999838,1.0117167999851517,863.8932005999959,863.9764380999841,864.7764481999911,864.8763669999898,864.8763669999898,864.8763669999898,up,1,0.8772942000068724,,,,,,,,,,,,,,,,,,,,,,,,,,,,,,,,,,,,,008,001,2023-11-19_13h35.59.674,ETproject_Chi_2023.1.1,2023.1.1,60.01842565723753,
44,Month,八月,四月,,Hori,late,left,image/Chi_late.png,"[-0.4, 0]","[0.4, 0]",4,incongruent,,,,,,,,,,,,,,,,,,,,,,,,,,,,,,,,,,,,,,0,29,29,40,,,,,,,,,,,,,,,,,,,,,,,,,,,,,865.788172999979,1.011181799985934,866.7921954999911,866.8753965999931,867.6752711000154,867.7751066000201,867.7751066000201,867.7751066000201,left,1,1.5702999999630265,,,,,,,,,,,,,,,,,,,,,,,,,,,,,,,,,,,,,008,001,2023-11-19_13h35.59.674,ETproject_Chi_2023.1.1,2023.1.1,60.01842565723753,
111,Week,星期一,星期四,,Vert,early,up,image/Chi_early.png,"[0, 0.4]","[0, -0.4]",3,congruent,,,,,,,,,,,,,,,,,,,,,,,,,,,,,,,,,,,,,,0,30,30,16,,,,,,,,,,,,,,,,,,,,,,,,,,,,,869.3874757000012,1.0107824999722652,870.3910759999999,870.4742686999962,871.2739565999946,871.3738910999964,871.3738910999964,871.3738910999964,up,1,1.6019673999981023,,,,,,,,,,,,,,,,,,,,,,,,,,,,,,,,,,,,,008,001,2023-11-19_13h35.59.674,ETproject_Chi_2023.1.1,2023.1.1,60.01842565723753,
41,Month,八月,九月 ,,Vert,late,down,image/Chi_late.png,"[0, 0.4]","[0, -0.4]",1,congruent,,,,,,,,,,,,,,,,,,,,,,,,,,,,,,,,,,,,,,0,31,31,23,,,,,,,,,,,,,,,,,,,,,,,,,,,,,874.0177054000087,1.0155140000279061,875.0230266000144,875.1061125000124,875.9059731999878,876.0058139999746,876.0058139999746,876.0058139999746,down,1,1.0986683000228368,,,,,,,,,,,,,,,,,,,,,,,,,,,,,,,,,,,,,008,001,2023-11-19_13h35.59.674,ETproject_Chi_2023.1.1,2023.1.1,60.01842565723753,
98,Week,星期二,星期四,,Hori,early,left,image/Chi_early.png,"[-0.4, 0]","[0.4, 0]",2,congruent,,,,,,,,,,,,,,,,,,,,,,,,,,,,,,,,,,,,,,0,32,32,47,,,,,,,,,,,,,,,,,,,,,,,,,,,,,877.1345933999983,0.9990343999816105,878.1383124999702,878.221698999987,879.0214295000187,879.121418100025,879.121418100025,879.121418100025,left,1,1.15155120001873,,,,,,,,,,,,,,,,,,,,,,,,,,,,,,,,,,,,,008,001,2023-11-19_13h35.59.674,ETproject_Chi_2023.1.1,2023.1.1,60.01842565723753,
2,Month,二月,四月,,Hori,early,left,image/Chi_early.png,"[-0.4, 0]","[0.4, 0]",2,congruent,,,,,,,,,,,,,,,,,,,,,,,,,,,,,,,,,,,,,,0,33,33,5,,,,,,,,,,,,,,,,,,,,,,,,,,,,,880.3092923000222,0.9990490999771282,881.320759699971,881.4042031000135,882.203824199969,882.3036261000088,882.3036261000088,882.3036261000088,left,1,0.6803921000100672,,,,,,,,,,,,,,,,,,,,,,,,,,,,,,,,,,,,,008,001,2023-11-19_13h35.59.674,ETproject_Chi_2023.1.1,2023.1.1,60.01842565723753,
29,Month,二月,五月,,Vert,late,down,image/Chi_late.png,"[0, 0.4]","[0, -0.4]",3,congruent,,,,,,,,,,,,,,,,,,,,,,,,,,,,,,,,,,,,,,0,34,34,14,,,,,,,,,,,,,,,,,,,,,,,,,,,,,883.0107789000031,1.013988499995321,884.0198388000135,884.1029822999844,884.902900999994,885.0028601000085,885.0028601000085,885.0028601000085,down,1,1.5654854999738745,,,,,,,,,,,,,,,,,,,,,,,,,,,,,,,,,,,,,008,001,2023-11-19_13h35.59.674,ETproject_Chi_2023.1.1,2023.1.1,60.01842565723753,
33,Month,六月,九月 ,,Vert,late,down,image/Chi_late.png,"[0, 0.4]","[0, -0.4]",3,congruent,,,,,,,,,,,,,,,,,,,,,,,,,,,,,,,,,,,,,,0,35,35,44,,,,,,,,,,,,,,,,,,,,,,,,,,,,,886.595316299994,1.0114570999867283,887.6019339999766,887.6854930000263,888.4850712000043,888.584955999977,888.584955999977,888.584955999977,down,1,2.655083400022704,,,,,,,,,,,,,,,,,,,,,,,,,,,,,,,,,,,,,008,001,2023-11-19_13h35.59.674,ETproject_Chi_2023.1.1,2023.1.1,60.01842565723753,
56,Month,五月,二月,,Vert,early,down,image/Chi_early.png,"[0, 0.4]","[0, -0.4]",3,incongruent,,,,,,,,,,,,,,,,,,,,,,,,,,,,,,,,,,,,,,0,36,36,3,,,,,,,,,,,,,,,,,,,,,,,,,,,,,891.2794995000004,1.0116783999837935,892.283791200025,892.3671010999824,893.1666851000045,893.2669763999875,893.2669763999875,893.2669763999875,down,1,1.2623173000174575,,,,,,,,,,,,,,,,,,,,,,,,,,,,,,,,,,,,,008,001,2023-11-19_13h35.59.674,ETproject_Chi_2023.1.1,2023.1.1,60.01842565723753,
