No,Category,earlier_stim,later_stim,conguency,orientation,instruction,corr_resp,Instruction_stim,early_position,late_position,distance,congruency,Image,Qustion,Response,CorrAns,Path,prac_block.thisRepN,prac_block.thisTrialN,prac_block.thisN,prac_block.thisIndex,trials.thisRepN,trials.thisTrialN,trials.thisN,trials.thisIndex,block1.thisRepN,block1.thisTrialN,block1.thisN,block1.thisIndex,break1.thisRepN,break1.thisTrialN,break1.thisN,break1.thisIndex,block2.thisRepN,block2.thisTrialN,block2.thisN,block2.thisIndex,break2.thisRepN,break2.thisTrialN,break2.thisN,break2.thisIndex,block3.thisRepN,block3.thisTrialN,block3.thisN,block3.thisIndex,break3.thisRepN,break3.thisTrialN,break3.thisN,break3.thisIndex,block4.thisRepN,block4.thisTrialN,block4.thisN,block4.thisIndex,intro_1.started,intro_2.started,intro2_resp.started,intro2_resp.keys,intro2_resp.rt,Intro_3.started,intro3_resp.started,intro3_resp.keys,intro3_resp.rt,pracintro.started,pracintro_resp.started,pracintro_resp.keys,pracintro_resp.rt,image.started,early.started,RESP.started,late.started,pracfeedback.started,pracfeedback.stopped,text_4.started,text_4.stopped,text_5.started,baselinerecord.started,intro_5.started,intro5_resp.started,intro5_resp.keys,intro5_resp.rt,main_image_2.started,etRecord.started,main_image_2.stopped,fix.started,fix.stopped,main_early.started,ct_resp.started,main_late.started,ct_resp.keys,ct_resp.corr,ct_resp.rt,intro.started,intro2_resp_2.started,intro2_resp_2.keys,intro2_resp_2.rt,fengjing.started,text.started,fengjing.stopped,text.stopped,key_resp.started,text_2.started,text_3.started,key_resp.keys,key_resp.corr,key_resp.rt,intro_6.started,intro5_resp_2.started,intro5_resp_2.keys,intro5_resp_2.rt,intro_3.started,intro2_resp_3.started,intro2_resp_3.keys,intro2_resp_3.rt,intro_7.started,intro2_resp_5.started,intro2_resp_5.keys,intro2_resp_5.rt,intro_4.started,intro2_resp_4.started,intro2_resp_4.keys,intro2_resp_4.rt,intro_8.started,intro2_resp_6.started,intro2_resp_6.keys,intro2_resp_6.rt,theend.started,theend.stopped,participant,session,date,expName,psychopyVersion,frameRate,
,,,,,,,,,,,,,,,,,,,,,,,,,,,,,,,,,,,,,,,,,,,,,,,,,,,,,,89.23392389999935,91.24853979999898,91.24853979999898,space,7.340319900016766,,,,,,,,,,,,,,,,,,,,,,,,,,,,,,,,,,,,,,,,,,,,,,,,,,,,,,,,,,,,,,,,,,,,,,009,001,2023-11-19_15h28.48.970,ETproject_Chi_2023.1.1,2023.1.1,59.93723373932769,
,,,,,,,,,,,,,,,,,,,,,,,,,,,,,,,,,,,,,,,,,,,,,,,,,,,,,,,,,,,98.61324119998608,98.61324119998608,space,35.43119179998757,,,,,,,,,,,,,,,,,,,,,,,,,,,,,,,,,,,,,,,,,,,,,,,,,,,,,,,,,,,,,,,,,,009,001,2023-11-19_15h28.48.970,ETproject_Chi_2023.1.1,2023.1.1,59.93723373932769,
3,practice,星期一,星期二,congruent,Vert,early,up,image/Chi_early.png,"[0, 0.4]","[0, -0.4]",,,,,,,,0,0,0,0,0,0,0,2,,,,,,,,,,,,,,,,,,,,,,,,,,,,,,,,,,,,,,134.10712060000515,134.10712060000515,space,8.385466300009284,142.56997750001028,143.5310357999988,143.5310357999988,143.5310357999988,148.53829549998045,,,,,,,,,,,,,,,,,,,,,,,,,,,,,,,,,,,,,,,,,,,,,,,,,,,,,,,,,009,001,2023-11-19_15h28.48.970,ETproject_Chi_2023.1.1,2023.1.1,59.93723373932769,
2,practice,星期五,星期六,congruent,Hori,late,right,image/Chi_late.png,"[-0.4, 0]","[0.4, 0]",,,,,,,,0,0,0,0,0,1,1,1,,,,,,,,,,,,,,,,,,,,,,,,,,,,,,,,,,,,,,,,,,149.53291280003032,150.52896329999203,150.52896329999203,150.52896329999203,151.8951024999842,152.90331050002715,,,,,,,,,,,,,,,,,,,,,,,,,,,,,,,,,,,,,,,,,,,,,,,,,,,,,,,,009,001,2023-11-19_15h28.48.970,ETproject_Chi_2023.1.1,2023.1.1,59.93723373932769,
7,practice,星期三 ,星期二,incongruent,Vert,early,down,image/Chi_early.png,"[0, 0.4]","[0, -0.4]",,,,,,,,0,0,0,0,0,2,2,6,,,,,,,,,,,,,,,,,,,,,,,,,,,,,,,,,,,,,,,,,,152.90331050002715,153.91114879999077,153.91114879999077,153.91114879999077,154.79417300003115,155.7993303000112,,,,,,,,,,,,,,,,,,,,,,,,,,,,,,,,,,,,,,,,,,,,,,,,,,,,,,,,009,001,2023-11-19_15h28.48.970,ETproject_Chi_2023.1.1,2023.1.1,59.93723373932769,
4,practice,星期日,星期一,congruent,Vert,late,down,image/Chi_late.png,"[0, 0.4]","[0, -0.4]",,,,,,,,0,0,0,0,0,3,3,3,,,,,,,,,,,,,,,,,,,,,,,,,,,,,,,,,,,,,,,,,,155.7993303000112,156.8100671999855,156.8100671999855,156.8100671999855,157.61007370002335,158.61426459997892,,,,,,,,,,,,,,,,,,,,,,,,,,,,,,,,,,,,,,,,,,,,,,,,,,,,,,,,009,001,2023-11-19_15h28.48.970,ETproject_Chi_2023.1.1,2023.1.1,59.93723373932769,
1,practice,星期三 ,星期四,congruent,Hori,early,left,image/Chi_early.png,"[-0.4, 0]","[0.4, 0]",,,,,,,,0,0,0,0,0,4,4,0,,,,,,,,,,,,,,,,,,,,,,,,,,,,,,,,,,,,,,,,,,158.61426459997892,159.62576289998833,159.62576289998833,159.62576289998833,160.92559659999097,161.92971380002564,,,,,,,,,,,,,,,,,,,,,,,,,,,,,,,,,,,,,,,,,,,,,,,,,,,,,,,,009,001,2023-11-19_15h28.48.970,ETproject_Chi_2023.1.1,2023.1.1,59.93723373932769,
8,practice,星期六,星期五,incongruent,Vert,late,up,image/Chi_late.png,"[0, 0.4]","[0, -0.4]",,,,,,,,0,0,0,0,0,5,5,7,,,,,,,,,,,,,,,,,,,,,,,,,,,,,,,,,,,,,,,,,,161.92971380002564,162.94141060003312,162.94141060003312,162.94141060003312,164.2245292000007,165.23105230001966,,,,,,,,,,,,,,,,,,,,,,,,,,,,,,,,,,,,,,,,,,,,,,,,,,,,,,,,009,001,2023-11-19_15h28.48.970,ETproject_Chi_2023.1.1,2023.1.1,59.93723373932769,
5,practice,星期二,星期一,incongruent,Hori,early,right,image/Chi_early.png,"[-0.4, 0]","[0.4, 0]",,,,,,,,0,0,0,0,0,6,6,4,,,,,,,,,,,,,,,,,,,,,,,,,,,,,,,,,,,,,,,,,,165.23105230001966,166.24039990000892,166.24039990000892,166.24039990000892,167.09019940003054,168.09376130002784,,,,,,,,,,,,,,,,,,,,,,,,,,,,,,,,,,,,,,,,,,,,,,,,,,,,,,,,009,001,2023-11-19_15h28.48.970,ETproject_Chi_2023.1.1,2023.1.1,59.93723373932769,
6,practice,星期四,星期三 ,incongruent,Hori,late,left,image/Chi_late.png,"[-0.4, 0]","[0.4, 0]",,,,,,,,0,0,0,0,0,7,7,5,,,,,,,,,,,,,,,,,,,,,,,,,,,,,,,,,,,,,,,,,,168.09376130002784,169.10598500003107,169.10598500003107,169.10598500003107,170.17256490001455,171.17218900000444,,,,,,,,,,,,,,,,,,,,,,,,,,,,,,,,,,,,,,,,,,,,,,,,,,,,,,,,009,001,2023-11-19_15h28.48.970,ETproject_Chi_2023.1.1,2023.1.1,59.93723373932769,
,,,,,,,,,,,,,,,,,,0,0,0,0,,,,,,,,,,,,,,,,,,,,,,,,,,,,,,,,,,,,,,,,,,,,,,,,,,,,,,,,,,,,,,,,,,,,,,,,,,,,,,,,,,,,,,,,,,,,,,,,,,,,,,,,,,,009,001,2023-11-19_15h28.48.970,ETproject_Chi_2023.1.1,2023.1.1,59.93723373932769,
,,,,,,,,,,,,,,,,,,,,,,,,,,,,,,,,,,,,,,,,,,,,,,,,,,,,,,,,,,,,,,,,,,,,,,,,,171.17218900000444,174.1710986000253,174.1710986000253,3.0147498000296764,178.18643400003202,178.18643400003202,space,10.714217100001406,,,,,,,,,,,,,,,,,,,,,,,,,,,,,,,,,,,,,,,,,,,,,,,,009,001,2023-11-19_15h28.48.970,ETproject_Chi_2023.1.1,2023.1.1,59.93723373932769,
58,Month,六月,二月,,Vert,late,up,image/Chi_late.png,"[0, 0.4]","[0, -0.4]",4,incongruent,,,,,,,,,,,,,,0,0,0,18,,,,,,,,,,,,,,,,,,,,,,,,,,,,,,,,,,,,,,,,,,,,,,,,,,,,188.95159369998146,0.9995844999793917,189.96556390001206,190.03219779999927,190.83230700000422,190.932174400019,190.932174400019,190.932174400019,up,1,2.2239113999530673,,,,,,,,,,,,,,,,,,,,,,,,,,,,,,,,,,,,,009,001,2023-11-19_15h28.48.970,ETproject_Chi_2023.1.1,2023.1.1,59.93723373932769,
63,Month,十二月,九月 ,,Vert,early,down,image/Chi_early.png,"[0, 0.4]","[0, -0.4]",3,incongruent,,,,,,,,,,,,,,0,1,1,22,,,,,,,,,,,,,,,,,,,,,,,,,,,,,,,,,,,,,,,,,,,,,,,,,,,,193.196543500002,1.0109320000046864,194.19767860003049,194.28120329999365,195.08068190002814,195.1807069000206,195.1807069000206,195.1807069000206,down,1,1.327380200033076,,,,,,,,,,,,,,,,,,,,,,,,,,,,,,,,,,,,,009,001,2023-11-19_15h28.48.970,ETproject_Chi_2023.1.1,2023.1.1,59.93723373932769,
99,Week,星期三 ,星期六,,Hori,early,left,image/Chi_early.png,"[-0.4, 0]","[0.4, 0]",3,congruent,,,,,,,,,,,,,,0,2,2,6,,,,,,,,,,,,,,,,,,,,,,,,,,,,,,,,,,,,,,,,,,,,,,,,,,,,196.54074120003497,1.010523299977649,197.54658179997932,197.63031550002052,198.42968920001294,198.52994310000213,198.52994310000213,198.52994310000213,left,1,1.2259830000111833,,,,,,,,,,,,,,,,,,,,,,,,,,,,,,,,,,,,,009,001,2023-11-19_15h28.48.970,ETproject_Chi_2023.1.1,2023.1.1,59.93723373932769,
120,Week,星期三 ,星期六,,Vert,late,down,image/Chi_late.png,"[0, 0.4]","[0, -0.4]",3,congruent,,,,,,,,,,,,,,0,3,3,34,,,,,,,,,,,,,,,,,,,,,,,,,,,,,,,,,,,,,,,,,,,,,,,,,,,,199.79078610002762,1.0118343000067398,200.7955410000286,200.87908879999304,201.678904600034,201.77857520000543,201.77857520000543,201.77857520000543,right,0,1.5048043000278994,,,,,,,,,,,,,,,,,,,,,,,,,,,,,,,,,,,,,009,001,2023-11-19_15h28.48.970,ETproject_Chi_2023.1.1,2023.1.1,59.93723373932769,
12,Week,星期日,星期四,,Vert,late,up,image/Chi_late.png,"[0, 0.4]","[0, -0.4]",3,incongruent,,,,,,,,,,,,,,0,4,4,9,,,,,,,,,,,,,,,,,,,,,,,,,,,,,,,,,,,,,,,,,,,,,,,,,,,,203.31571769999573,0.9990121999871917,204.32776090002153,204.41117029997986,205.21069540001918,205.3108919999795,205.3108919999795,205.3108919999795,up,1,1.5091325000394136,,,,,,,,,,,,,,,,,,,,,,,,,,,,,,,,,,,,,009,001,2023-11-19_15h28.48.970,ETproject_Chi_2023.1.1,2023.1.1,59.93723373932769,
150,Week,星期日,星期五,,Vert,late,up,image/Chi_late.png,"[0, 0.4]","[0, -0.4]",2,incongruent,,,,,,,,,,,,,,0,5,5,46,,,,,,,,,,,,,,,,,,,,,,,,,,,,,,,,,,,,,,,,,,,,,,,,,,,,206.84709019999718,0.9990431999904104,207.85976140003186,207.94318230001954,208.74311390001094,208.843148200016,208.843148200016,208.843148200016,up,1,1.0560334000037983,,,,,,,,,,,,,,,,,,,,,,,,,,,,,,,,,,,,,009,001,2023-11-19_15h28.48.970,ETproject_Chi_2023.1.1,2023.1.1,59.93723373932769,
101,Week,星期五,星期六,,Hori,early,left,image/Chi_early.png,"[-0.4, 0]","[0.4, 0]",1,congruent,,,,,,,,,,,,,,0,6,6,42,,,,,,,,,,,,,,,,,,,,,,,,,,,,,,,,,,,,,,,,,,,,,,,,,,,,209.94100360001903,0.9993018999812193,210.9421686999849,211.02552450000076,211.82527089997893,211.92531419999432,211.92531419999432,211.92531419999432,left,1,1.19902010000078,,,,,,,,,,,,,,,,,,,,,,,,,,,,,,,,,,,,,009,001,2023-11-19_15h28.48.970,ETproject_Chi_2023.1.1,2023.1.1,59.93723373932769,
49,Month,七月,四月,,Hori,late,left,image/Chi_late.png,"[-0.4, 0]","[0.4, 0]",3,incongruent,,,,,,,,,,,,,,0,7,7,38,,,,,,,,,,,,,,,,,,,,,,,,,,,,,,,,,,,,,,,,,,,,,,,,,,,,213.15514739998616,1.0114804999902844,214.1576567000011,214.2412392999977,215.04096190002747,215.14066959999036,215.14066959999036,215.14066959999036,left,1,1.7024507999885827,,,,,,,,,,,,,,,,,,,,,,,,,,,,,,,,,,,,,009,001,2023-11-19_15h28.48.970,ETproject_Chi_2023.1.1,2023.1.1,59.93723373932769,
150,Week,星期六,星期五,,Vert,late,up,image/Chi_late.png,"[0, 0.4]","[0, -0.4]",1,incongruent,,,,,,,,,,,,,,0,8,8,23,,,,,,,,,,,,,,,,,,,,,,,,,,,,,,,,,,,,,,,,,,,,,,,,,,,,216.88213009998435,1.0116880999994464,217.88992839999264,217.97328979999293,218.77311680000275,218.87307259999216,218.87307259999216,218.87307259999216,up,1,0.8909741999814287,,,,,,,,,,,,,,,,,,,,,,,,,,,,,,,,,,,,,009,001,2023-11-19_15h28.48.970,ETproject_Chi_2023.1.1,2023.1.1,59.93723373932769,
139,Week,星期四,星期一,,Vert,early,down,image/Chi_early.png,"[0, 0.4]","[0, -0.4]",3,incongruent,,,,,,,,,,,,,,0,9,9,7,,,,,,,,,,,,,,,,,,,,,,,,,,,,,,,,,,,,,,,,,,,,,,,,,,,,219.80146019998938,1.010616999992635,220.80557530000806,220.88892870000564,221.68887070001801,221.78879620000953,221.78879620000953,221.78879620000953,down,1,1.2637409000308253,,,,,,,,,,,,,,,,,,,,,,,,,,,,,,,,,,,,,009,001,2023-11-19_15h28.48.970,ETproject_Chi_2023.1.1,2023.1.1,59.93723373932769,
46,Month,四月,一月,,Hori,late,left,image/Chi_late.png,"[-0.4, 0]","[0.4, 0]",3,incongruent,,,,,,,,,,,,,,0,10,10,14,,,,,,,,,,,,,,,,,,,,,,,,,,,,,,,,,,,,,,,,,,,,,,,,,,,,224.08034119999502,1.0143627999932505,225.0874569999869,225.17100109998137,225.97046240000054,226.07071629998973,226.07071629998973,226.07071629998973,left,1,1.3572361000115052,,,,,,,,,,,,,,,,,,,,,,,,,,,,,,,,,,,,,009,001,2023-11-19_15h28.48.970,ETproject_Chi_2023.1.1,2023.1.1,59.93723373932769,
125,Week,星期三 ,星期一,,Hori,early,right,image/Chi_early.png,"[-0.4, 0]","[0.4, 0]",2,incongruent,,,,,,,,,,,,,,0,11,11,5,,,,,,,,,,,,,,,,,,,,,,,,,,,,,,,,,,,,,,,,,,,,,,,,,,,,227.46721999999136,1.0160063999937847,228.4698545000283,228.55304860003525,229.35278700001072,229.45296349999262,229.45296349999262,229.45296349999262,right,1,2.343339000013657,,,,,,,,,,,,,,,,,,,,,,,,,,,,,,,,,,,,,009,001,2023-11-19_15h28.48.970,ETproject_Chi_2023.1.1,2023.1.1,59.93723373932769,
118,Week,星期一,星期四,,Vert,late,down,image/Chi_late.png,"[0, 0.4]","[0, -0.4]",3,congruent,,,,,,,,,,,,,,0,12,12,45,,,,,,,,,,,,,,,,,,,,,,,,,,,,,,,,,,,,,,,,,,,,,,,,,,,,231.82774710003287,1.0141735999495722,232.8349868999794,232.918338700023,233.71808130003046,233.8179462000262,233.8179462000262,233.8179462000262,down,1,1.8824873000266962,,,,,,,,,,,,,,,,,,,,,,,,,,,,,,,,,,,,,009,001,2023-11-19_15h28.48.970,ETproject_Chi_2023.1.1,2023.1.1,59.93723373932769,
142,Week,星期五,星期四,,Vert,early,down,image/Chi_early.png,"[0, 0.4]","[0, -0.4]",1,incongruent,,,,,,,,,,,,,,0,13,13,0,,,,,,,,,,,,,,,,,,,,,,,,,,,,,,,,,,,,,,,,,,,,,,,,,,,,235.7315757999895,1.0111000000033528,236.7336136000231,236.8172044000239,237.61687199998414,237.71677499997895,237.71677499997895,237.71677499997895,down,1,1.8321485000196844,,,,,,,,,,,,,,,,,,,,,,,,,,,,,,,,,,,,,009,001,2023-11-19_15h28.48.970,ETproject_Chi_2023.1.1,2023.1.1,59.93723373932769,
114,Week,星期四,星期日,,Vert,early,up,image/Chi_early.png,"[0, 0.4]","[0, -0.4]",3,congruent,,,,,,,,,,,,,,0,14,14,12,,,,,,,,,,,,,,,,,,,,,,,,,,,,,,,,,,,,,,,,,,,,,,,,,,,,239.5725876999786,1.0133217999828048,240.5824104999774,240.66580930002965,241.46562630002154,241.56552699999884,241.56552699999884,241.56552699999884,up,1,1.7905486000236124,,,,,,,,,,,,,,,,,,,,,,,,,,,,,,,,,,,,,009,001,2023-11-19_15h28.48.970,ETproject_Chi_2023.1.1,2023.1.1,59.93723373932769,
116,Week,星期六,星期日,,Vert,early,up,image/Chi_early.png,"[0, 0.4]","[0, -0.4]",1,congruent,,,,,,,,,,,,,,0,15,15,10,,,,,,,,,,,,,,,,,,,,,,,,,,,,,,,,,,,,,,,,,,,,,,,,,,,,243.388463100011,1.0118008999852464,244.39792630000738,244.4813888000208,245.28090439998778,245.3809462999925,245.3809462999925,245.3809462999925,up,1,1.8548066000221297,,,,,,,,,,,,,,,,,,,,,,,,,,,,,,,,,,,,,009,001,2023-11-19_15h28.48.970,ETproject_Chi_2023.1.1,2023.1.1,59.93723373932769,
20,Month,四月,八月,,Vert,early,up,image/Chi_early.png,"[0, 0.4]","[0, -0.4]",4,congruent,,,,,,,,,,,,,,0,16,16,4,,,,,,,,,,,,,,,,,,,,,,,,,,,,,,,,,,,,,,,,,,,,,,,,,,,,247.27733640000224,1.0090388000244275,248.2799010000308,248.36319400003413,249.16315209999448,249.26286150002852,249.26286150002852,249.26286150002852,up,1,1.2680658999597654,,,,,,,,,,,,,,,,,,,,,,,,,,,,,,,,,,,,,009,001,2023-11-19_15h28.48.970,ETproject_Chi_2023.1.1,2023.1.1,59.93723373932769,
50,Month,八月,五月,,Hori,late,left,image/Chi_late.png,"[-0.4, 0]","[0.4, 0]",3,incongruent,,,,,,,,,,,,,,0,17,17,35,,,,,,,,,,,,,,,,,,,,,,,,,,,,,,,,,,,,,,,,,,,,,,,,,,,,250.5740074000205,1.013169200043194,251.5789174999809,251.66238990001148,252.46210659999633,252.5619936999865,252.5619936999865,252.5619936999865,left,1,0.8410049000522122,,,,,,,,,,,,,,,,,,,,,,,,,,,,,,,,,,,,,009,001,2023-11-19_15h28.48.970,ETproject_Chi_2023.1.1,2023.1.1,59.93723373932769,
38,Month,八月,十月 ,,Vert,late,down,image/Chi_late.png,"[0, 0.4]","[0, -0.4]",2,congruent,,,,,,,,,,,,,,0,18,18,37,,,,,,,,,,,,,,,,,,,,,,,,,,,,,,,,,,,,,,,,,,,,,,,,,,,,254.4324665000313,1.0146362999803387,255.44410860002972,255.52790109999478,256.32739789999323,256.42733889998635,256.42733889998635,256.42733889998635,down,1,1.8880169999902137,,,,,,,,,,,,,,,,,,,,,,,,,,,,,,,,,,,,,009,001,2023-11-19_15h28.48.970,ETproject_Chi_2023.1.1,2023.1.1,59.93723373932769,
127,Week,星期五,星期三 ,,Hori,early,right,image/Chi_early.png,"[-0.4, 0]","[0.4, 0]",2,incongruent,,,,,,,,,,,,,,0,19,19,13,,,,,,,,,,,,,,,,,,,,,,,,,,,,,,,,,,,,,,,,,,,,,,,,,,,,258.35361069999635,1.0122201000340283,259.35958649998065,259.4428831000114,260.24280469998484,260.34290129999863,260.34290129999863,260.34290129999863,right,1,2.4772215000120923,,,,,,,,,,,,,,,,,,,,,,,,,,,,,,,,,,,,,009,001,2023-11-19_15h28.48.970,ETproject_Chi_2023.1.1,2023.1.1,59.93723373932769,
98,Week,星期二,星期三 ,,Hori,early,left,image/Chi_early.png,"[-0.4, 0]","[0.4, 0]",1,congruent,,,,,,,,,,,,,,0,20,20,49,,,,,,,,,,,,,,,,,,,,,,,,,,,,,,,,,,,,,,,,,,,,,,,,,,,,262.8502898000297,1.0100761000066996,263.85816120001255,263.9414544000174,264.74113769998075,264.8412844000268,264.8412844000268,264.8412844000268,left,1,1.545738699962385,,,,,,,,,,,,,,,,,,,,,,,,,,,,,,,,,,,,,009,001,2023-11-19_15h28.48.970,ETproject_Chi_2023.1.1,2023.1.1,59.93723373932769,
141,Week,星期五,星期三 ,,Vert,early,down,image/Chi_early.png,"[0, 0.4]","[0, -0.4]",2,incongruent,,,,,,,,,,,,,,0,21,21,15,,,,,,,,,,,,,,,,,,,,,,,,,,,,,,,,,,,,,,,,,,,,,,,,,,,,266.41570449998835,1.0117582000093535,267.42365930002416,267.50712700001895,268.3067082000198,268.4067440999788,268.4067440999788,268.4067440999788,down,1,1.6135524000274017,,,,,,,,,,,,,,,,,,,,,,,,,,,,,,,,,,,,,009,001,2023-11-19_15h28.48.970,ETproject_Chi_2023.1.1,2023.1.1,59.93723373932769,
1,Month,一月,二月 ,,Hori,early,left,image/Chi_early.png,"[-0.4, 0]","[0.4, 0]",1,congruent,,,,,,,,,,,,,,0,22,22,28,,,,,,,,,,,,,,,,,,,,,,,,,,,,,,,,,,,,,,,,,,,,,,,,,,,,270.0492674999987,1.0114665000000969,271.0555990000139,271.1390956999967,271.93879949999973,272.0387957000057,272.0387957000057,272.0387957000057,left,1,0.966128200001549,,,,,,,,,,,,,,,,,,,,,,,,,,,,,,,,,,,,,009,001,2023-11-19_15h28.48.970,ETproject_Chi_2023.1.1,2023.1.1,59.93723373932769,
24,Month,四月,六月,,Vert,early,up,image/Chi_early.png,"[0, 0.4]","[0, -0.4]",2,congruent,,,,,,,,,,,,,,0,23,23,8,,,,,,,,,,,,,,,,,,,,,,,,,,,,,,,,,,,,,,,,,,,,,,,,,,,,273.025664100016,1.0152561999857426,274.0381099000224,274.1214487000252,274.92117029998917,275.02111989998957,275.02111989998957,275.02111989998957,up,1,0.8865717999869958,,,,,,,,,,,,,,,,,,,,,,,,,,,,,,,,,,,,,009,001,2023-11-19_15h28.48.970,ETproject_Chi_2023.1.1,2023.1.1,59.93723373932769,
26,Month,六月,八月,,Vert,early,up,image/Chi_early.png,"[0, 0.4]","[0, -0.4]",2,congruent,,,,,,,,,,,,,,0,24,24,32,,,,,,,,,,,,,,,,,,,,,,,,,,,,,,,,,,,,,,,,,,,,,,,,,,,,275.94472889997996,1.012084899994079,276.9539131000056,277.0371836000122,277.83684709999943,277.93690939998487,277.93690939998487,277.93690939998487,up,1,1.170609000022523,,,,,,,,,,,,,,,,,,,,,,,,,,,,,,,,,,,,,009,001,2023-11-19_15h28.48.970,ETproject_Chi_2023.1.1,2023.1.1,59.93723373932769,
106,Week,星期三 ,星期六,,Hori,late,right,image/Chi_late.png,"[-0.4, 0]","[0.4, 0]",3,congruent,,,,,,,,,,,,,,0,25,25,3,,,,,,,,,,,,,,,,,,,,,,,,,,,,,,,,,,,,,,,,,,,,,,,,,,,,279.1494028000161,1.0131840000394732,280.15266880003037,280.2359972000122,281.0358251000289,281.1357343000127,281.1357343000127,281.1357343000127,right,1,1.9959118000115268,,,,,,,,,,,,,,,,,,,,,,,,,,,,,,,,,,,,,009,001,2023-11-19_15h28.48.970,ETproject_Chi_2023.1.1,2023.1.1,59.93723373932769,
112,Week,星期二,星期三 ,,Vert,early,up,image/Chi_early.png,"[0, 0.4]","[0, -0.4]",1,congruent,,,,,,,,,,,,,,0,26,26,31,,,,,,,,,,,,,,,,,,,,,,,,,,,,,,,,,,,,,,,,,,,,,,,,,,,,283.1612069000257,1.0134306999971159,284.1682563999784,284.2514270999818,285.05127990001347,285.151151500002,285.151151500002,285.151151500002,up,1,1.5492624000180513,,,,,,,,,,,,,,,,,,,,,,,,,,,,,,,,,,,,,009,001,2023-11-19_15h28.48.970,ETproject_Chi_2023.1.1,2023.1.1,59.93723373932769,
77,Month,九月 ,七月,,Vert,late,up,image/Chi_late.png,"[0, 0.4]","[0, -0.4]",2,incongruent,,,,,,,,,,,,,,0,27,27,43,,,,,,,,,,,,,,,,,,,,,,,,,,,,,,,,,,,,,,,,,,,,,,,,,,,,286.73518489999697,1.0109162000007927,287.7335560999927,287.81693600001745,288.6165702000144,288.7167383999913,288.7167383999913,288.7167383999913,up,1,1.1272973999730311,,,,,,,,,,,,,,,,,,,,,,,,,,,,,,,,,,,,,009,001,2023-11-19_15h28.48.970,ETproject_Chi_2023.1.1,2023.1.1,59.93723373932769,
136,Week,星期日,星期五,,Hori,late,left,image/Chi_late.png,"[-0.4, 0]","[0.4, 0]",2,incongruent,,,,,,,,,,,,,,0,28,28,17,,,,,,,,,,,,,,,,,,,,,,,,,,,,,,,,,,,,,,,,,,,,,,,,,,,,290.8712779000052,1.0150916000129655,291.88210679998156,291.9657718000235,292.7653202000074,292.865335999988,292.865335999988,292.865335999988,left,1,1.0432993000140414,,,,,,,,,,,,,,,,,,,,,,,,,,,,,,,,,,,,,009,001,2023-11-19_15h28.48.970,ETproject_Chi_2023.1.1,2023.1.1,59.93723373932769,
148,Week,星期六,星期三 ,,Vert,late,up,image/Chi_late.png,"[0, 0.4]","[0, -0.4]",3,incongruent,,,,,,,,,,,,,,0,29,29,26,,,,,,,,,,,,,,,,,,,,,,,,,,,,,,,,,,,,,,,,,,,,,,,,,,,,293.93575810000766,1.01575680001406,294.9479759000242,295.0311788999825,295.8308518999838,295.9308461000328,295.9308461000328,295.9308461000328,up,1,2.145170700037852,,,,,,,,,,,,,,,,,,,,,,,,,,,,,,,,,,,,,009,001,2023-11-19_15h28.48.970,ETproject_Chi_2023.1.1,2023.1.1,59.93723373932769,
23,Month,七月,十一月 ,,Vert,early,up,image/Chi_early.png,"[0, 0.4]","[0, -0.4]",4,congruent,,,,,,,,,,,,,,0,30,30,48,,,,,,,,,,,,,,,,,,,,,,,,,,,,,,,,,,,,,,,,,,,,,,,,,,,,298.10604560002685,1.013104099954944,299.11315849999664,299.1964090000256,299.99629879998975,300.0963620999828,300.0963620999828,300.0963620999828,up,1,1.418876799987629,,,,,,,,,,,,,,,,,,,,,,,,,,,,,,,,,,,,,009,001,2023-11-19_15h28.48.970,ETproject_Chi_2023.1.1,2023.1.1,59.93723373932769,
112,Week,星期二,星期五,,Vert,early,up,image/Chi_early.png,"[0, 0.4]","[0, -0.4]",3,congruent,,,,,,,,,,,,,,0,31,31,24,,,,,,,,,,,,,,,,,,,,,,,,,,,,,,,,,,,,,,,,,,,,,,,,,,,,301.55675920000067,1.0115297999582253,302.56203810003353,302.6452304000268,303.4451492999797,303.5449949000031,303.5449949000031,303.5449949000031,up,1,1.6267601000145078,,,,,,,,,,,,,,,,,,,,,,,,,,,,,,,,,,,,,009,001,2023-11-19_15h28.48.970,ETproject_Chi_2023.1.1,2023.1.1,59.93723373932769,
78,Month,十月 ,八月,,Vert,late,up,image/Chi_late.png,"[0, 0.4]","[0, -0.4]",2,incongruent,,,,,,,,,,,,,,0,32,32,44,,,,,,,,,,,,,,,,,,,,,,,,,,,,,,,,,,,,,,,,,,,,,,,,,,,,305.2078375000274,1.0110028999624774,306.2108456999995,306.29400609998265,307.09383399999933,307.1937210999895,307.1937210999895,307.1937210999895,up,1,1.2262735000113025,,,,,,,,,,,,,,,,,,,,,,,,,,,,,,,,,,,,,009,001,2023-11-19_15h28.48.970,ETproject_Chi_2023.1.1,2023.1.1,59.93723373932769,
24,Month,六月,九月 ,,Vert,early,up,image/Chi_early.png,"[0, 0.4]","[0, -0.4]",3,congruent,,,,,,,,,,,,,,0,33,33,33,,,,,,,,,,,,,,,,,,,,,,,,,,,,,,,,,,,,,,,,,,,,,,,,,,,,308.45623010001145,1.0100452000042424,309.45985510002356,309.5429606999969,310.3426407999941,310.44281229999615,310.44281229999615,310.44281229999615,up,1,0.9682975999894552,,,,,,,,,,,,,,,,,,,,,,,,,,,,,,,,,,,,,009,001,2023-11-19_15h28.48.970,ETproject_Chi_2023.1.1,2023.1.1,59.93723373932769,
29,Month,七月,八月,,Vert,early,up,image/Chi_early.png,"[0, 0.4]","[0, -0.4]",1,congruent,,,,,,,,,,,,,,0,34,34,2,,,,,,,,,,,,,,,,,,,,,,,,,,,,,,,,,,,,,,,,,,,,,,,,,,,,311.4507156999898,1.0121708999504335,312.4588379000197,312.54212649998954,313.3418647000217,313.44173700001556,313.44173700001556,313.44173700001556,up,1,0.825447199982591,,,,,,,,,,,,,,,,,,,,,,,,,,,,,,,,,,,,,009,001,2023-11-19_15h28.48.970,ETproject_Chi_2023.1.1,2023.1.1,59.93723373932769,
132,Week,星期四,星期一,,Hori,late,left,image/Chi_late.png,"[-0.4, 0]","[0.4, 0]",3,incongruent,,,,,,,,,,,,,,0,35,35,19,,,,,,,,,,,,,,,,,,,,,,,,,,,,,,,,,,,,,,,,,,,,,,,,,,,,314.29837010003394,0.9990405999706127,315.3079039999866,315.39116790000116,316.19085820001783,316.2909675000119,316.2909675000119,316.2909675000119,left,1,1.3212708999635652,,,,,,,,,,,,,,,,,,,,,,,,,,,,,,,,,,,,,009,001,2023-11-19_15h28.48.970,ETproject_Chi_2023.1.1,2023.1.1,59.93723373932769,
6,Month,六月,十月 ,,Hori,early,left,image/Chi_early.png,"[-0.4, 0]","[0.4, 0]",4,congruent,,,,,,,,,,,,,,0,36,36,29,,,,,,,,,,,,,,,,,,,,,,,,,,,,,,,,,,,,,,,,,,,,,,,,,,,,317.65288750000764,1.010430299967993,318.6568008000031,318.7400812000269,319.5398773000343,319.6397528999951,319.6397528999951,319.6397528999951,left,1,1.81987459998345,,,,,,,,,,,,,,,,,,,,,,,,,,,,,,,,,,,,,009,001,2023-11-19_15h28.48.970,ETproject_Chi_2023.1.1,2023.1.1,59.93723373932769,
97,Week,星期一,星期四,,Hori,early,left,image/Chi_early.png,"[-0.4, 0]","[0.4, 0]",3,congruent,,,,,,,,,,,,,,0,37,37,20,,,,,,,,,,,,,,,,,,,,,,,,,,,,,,,,,,,,,,,,,,,,,,,,,,,,321.50004930002615,1.0099941999651492,322.50548019999405,322.58877540001413,323.38848570000846,323.48867779999273,323.48867779999273,323.48867779999273,left,1,0.9544076999882236,,,,,,,,,,,,,,,,,,,,,,,,,,,,,,,,,,,,,009,001,2023-11-19_15h28.48.970,ETproject_Chi_2023.1.1,2023.1.1,59.93723373932769,
34,Month,六月,二月,,Hori,early,right,image/Chi_early.png,"[-0.4, 0]","[0.4, 0]",4,incongruent,,,,,,,,,,,,,,0,38,38,21,,,,,,,,,,,,,,,,,,,,,,,,,,,,,,,,,,,,,,,,,,,,,,,,,,,,324.48026630003005,1.0106667000218295,325.4878437999869,325.571164300025,326.3708311999799,326.47085799998604,326.47085799998604,326.47085799998604,right,1,1.0683756000362337,,,,,,,,,,,,,,,,,,,,,,,,,,,,,,,,,,,,,009,001,2023-11-19_15h28.48.970,ETproject_Chi_2023.1.1,2023.1.1,59.93723373932769,
143,Week,星期六,星期五,,Vert,early,down,image/Chi_early.png,"[0, 0.4]","[0, -0.4]",1,incongruent,,,,,,,,,,,,,,0,39,39,36,,,,,,,,,,,,,,,,,,,,,,,,,,,,,,,,,,,,,,,,,,,,,,,,,,,,328.57534799998393,1.0150194999878295,329.5865034000017,329.66995200002566,330.4696612000116,330.569473200012,330.569473200012,330.569473200012,down,1,1.9226833000429906,,,,,,,,,,,,,,,,,,,,,,,,,,,,,,,,,,,,,009,001,2023-11-19_15h28.48.970,ETproject_Chi_2023.1.1,2023.1.1,59.93723373932769,
16,Month,六月,八月,,Hori,late,right,image/Chi_late.png,"[-0.4, 0]","[0.4, 0]",2,congruent,,,,,,,,,,,,,,0,40,40,30,,,,,,,,,,,,,,,,,,,,,,,,,,,,,,,,,,,,,,,,,,,,,,,,,,,,332.53107959998306,1.0121389999985695,333.53506480000215,333.6185002999846,334.41810990002705,334.518218000012,334.518218000012,334.518218000012,right,1,1.4057068999973126,,,,,,,,,,,,,,,,,,,,,,,,,,,,,,,,,,,,,009,001,2023-11-19_15h28.48.970,ETproject_Chi_2023.1.1,2023.1.1,59.93723373932769,
107,Week,星期四,星期六,,Hori,late,right,image/Chi_late.png,"[-0.4, 0]","[0.4, 0]",2,congruent,,,,,,,,,,,,,,0,41,41,16,,,,,,,,,,,,,,,,,,,,,,,,,,,,,,,,,,,,,,,,,,,,,,,,,,,,335.95984319999116,1.0117344000027515,336.96736080001574,337.05074360000435,337.8503646000172,337.95041240000864,337.95041240000864,337.95041240000864,right,1,0.8301929999724962,,,,,,,,,,,,,,,,,,,,,,,,,,,,,,,,,,,,,009,001,2023-11-19_15h28.48.970,ETproject_Chi_2023.1.1,2023.1.1,59.93723373932769,
13,Month,四月,七月,,Hori,late,right,image/Chi_late.png,"[-0.4, 0]","[0.4, 0]",3,congruent,,,,,,,,,,,,,,0,42,42,41,,,,,,,,,,,,,,,,,,,,,,,,,,,,,,,,,,,,,,,,,,,,,,,,,,,,338.81051979999756,1.010880499961786,339.81635849998565,339.8996652000351,340.69959139998537,340.7995163000305,340.7995163000305,340.7995163000305,right,1,0.8914573999936692,,,,,,,,,,,,,,,,,,,,,,,,,,,,,,,,,,,,,009,001,2023-11-19_15h28.48.970,ETproject_Chi_2023.1.1,2023.1.1,59.93723373932769,
101,Week,星期五,星期日,,Hori,early,left,image/Chi_early.png,"[-0.4, 0]","[0.4, 0]",2,congruent,,,,,,,,,,,,,,0,43,43,40,,,,,,,,,,,,,,,,,,,,,,,,,,,,,,,,,,,,,,,,,,,,,,,,,,,,341.7274370000232,1.0113465000176802,342.73209160001716,342.8153945999802,343.6150354000274,343.7152465999825,343.7152465999825,343.7152465999825,left,1,0.7451264000264928,,,,,,,,,,,,,,,,,,,,,,,,,,,,,,,,,,,,,009,001,2023-11-19_15h28.48.970,ETproject_Chi_2023.1.1,2023.1.1,59.93723373932769,
126,Week,星期三 ,星期二,,Hori,early,right,image/Chi_early.png,"[-0.4, 0]","[0.4, 0]",1,incongruent,,,,,,,,,,,,,,0,44,44,25,,,,,,,,,,,,,,,,,,,,,,,,,,,,,,,,,,,,,,,,,,,,,,,,,,,,344.4852171000093,1.0158195999683812,345.49799220002024,345.58121740003116,346.3810067999875,346.48098220000975,346.48098220000975,346.48098220000975,right,1,1.275511599960737,,,,,,,,,,,,,,,,,,,,,,,,,,,,,,,,,,,,,009,001,2023-11-19_15h28.48.970,ETproject_Chi_2023.1.1,2023.1.1,59.93723373932769,
34,Month,七月,十月 ,,Vert,late,down,image/Chi_late.png,"[0, 0.4]","[0, -0.4]",3,congruent,,,,,,,,,,,,,,0,45,45,11,,,,,,,,,,,,,,,,,,,,,,,,,,,,,,,,,,,,,,,,,,,,,,,,,,,,347.788046200003,0.9993514999514446,348.79674970003543,348.88032370002475,349.679918800015,349.77985220000846,349.77985220000846,349.77985220000846,down,1,1.2246378000127152,,,,,,,,,,,,,,,,,,,,,,,,,,,,,,,,,,,,,009,001,2023-11-19_15h28.48.970,ETproject_Chi_2023.1.1,2023.1.1,59.93723373932769,
45,Month,九月 ,五月,,Hori,late,left,image/Chi_late.png,"[-0.4, 0]","[0.4, 0]",4,incongruent,,,,,,,,,,,,,,0,46,46,39,,,,,,,,,,,,,,,,,,,,,,,,,,,,,,,,,,,,,,,,,,,,,,,,,,,,351.0376324999961,1.0111706999596208,352.0456726999837,352.12915480002994,352.928731299995,353.0288174999878,353.0288174999878,353.0288174999878,left,1,1.2390927000087686,,,,,,,,,,,,,,,,,,,,,,,,,,,,,,,,,,,,,009,001,2023-11-19_15h28.48.970,ETproject_Chi_2023.1.1,2023.1.1,59.93723373932769,
59,Month,七月,三月,,Vert,late,up,image/Chi_late.png,"[0, 0.4]","[0, -0.4]",4,incongruent,,,,,,,,,,,,,,0,47,47,47,,,,,,,,,,,,,,,,,,,,,,,,,,,,,,,,,,,,,,,,,,,,,,,,,,,,354.30596630001673,1.0104570999974385,355.3114299000008,355.39454539999133,356.194356699998,356.29434989998117,356.29434989998117,356.29434989998117,up,1,1.9574789000325836,,,,,,,,,,,,,,,,,,,,,,,,,,,,,,,,,,,,,009,001,2023-11-19_15h28.48.970,ETproject_Chi_2023.1.1,2023.1.1,59.93723373932769,
62,Month,十月 ,六月,,Vert,late,up,image/Chi_late.png,"[0, 0.4]","[0, -0.4]",4,incongruent,,,,,,,,,,,,,,0,48,48,27,,,,,,,,,,,,,,,,,,,,,,,,,,,,,,,,,,,,,,,,,,,,,,,,,,,,358.2866594999796,1.0105025000520982,359.29328380001243,359.376854000031,360.1763596999808,360.27638250001473,360.27638250001473,360.27638250001473,up,1,1.3114462999510579,,,,,,,,,,,,,,,,,,,,,,,,,,,,,,,,,,,,,009,001,2023-11-19_15h28.48.970,ETproject_Chi_2023.1.1,2023.1.1,59.93723373932769,
75,Month,十月 ,九月 ,,Vert,early,down,image/Chi_early.png,"[0, 0.4]","[0, -0.4]",1,incongruent,,,,,,,,,,,,,,0,49,49,1,,,,,,,,,,,,,,,,,,,,,,,,,,,,,,,,,,,,,,,,,,,,,,,,,,,,361.6221801000065,1.011963700002525,362.62565290002385,362.70888330001617,363.50868790003005,363.6086077999789,363.6086077999789,363.6086077999789,up,0,1.5478758999961428,,,,,,,,,,,,,,,,,,,,,,,,,,,,,,,,,,,,,009,001,2023-11-19_15h28.48.970,ETproject_Chi_2023.1.1,2023.1.1,59.93723373932769,
,,,,,,,,,,,,,,,,,,,,,,,,,,,,,,,,,,,,,,,,,,,,,,,,,,,,,,,,,,,,,,,,,,,,,,,,,,,,,,,,,,,,,,,,,,,,365.17498220002744,365.17498220002744,space,22.076005600043572,,,,,,,,,,,,,,,,,,,,,,,,,,,,,,,,,009,001,2023-11-19_15h28.48.970,ETproject_Chi_2023.1.1,2023.1.1,59.93723373932769,
,,,,,,,,,,,,,Spring 5.jpg,这是冬天吗？,否,Right,Break_material/Image/Spring 5.jpg,,,,,,,,,,,,,0,0,0,4,,,,,,,,,,,,,,,,,,,,,,,,,,,,,,,,,,,,,,,,,,,,,,,,,,,,,,,,,,,,,,,387.80110510002123,391.25381379999453,391.79928330000257,393.2655337000033,393.2655337000033,393.2655337000033,393.2655337000033,right,0,0.9070331999682821,,,,,,,,,,,,,,,,,,,,,,,009,001,2023-11-19_15h28.48.970,ETproject_Chi_2023.1.1,2023.1.1,59.93723373932769,
,,,,,,,,,,,,,Spring 6.jpg,这是春天吗？,是,Left,Break_material/Image/Spring 6.jpg,,,,,,,,,,,,,0,1,1,5,,,,,,,,,,,,,,,,,,,,,,,,,,,,,,,,,,,,,,,,,,,,,,,,,,,,,,,,,,,,,,,395.0781986999791,398.1860759999836,399.0801377000171,400.1965153000201,400.1965153000201,400.1965153000201,400.1965153000201,left,0,0.9515751999570057,,,,,,,,,,,,,,,,,,,,,,,009,001,2023-11-19_15h28.48.970,ETproject_Chi_2023.1.1,2023.1.1,59.93723373932769,
,,,,,,,,,,,,,Spring 4.jpg,这是秋天吗？,否,Right,Break_material/Image/Spring 4.jpg,,,,,,,,,,,,,0,2,2,3,,,,,,,,,,,,,,,,,,,,,,,,,,,,,,,,,,,,,,,,,,,,,,,,,,,,,,,,,,,,,,,401.59097190003376,405.1652914999868,405.5956085000071,407.17734539997764,407.17734539997764,407.17734539997764,407.17734539997764,right,0,0.5616594000020996,,,,,,,,,,,,,,,,,,,,,,,009,001,2023-11-19_15h28.48.970,ETproject_Chi_2023.1.1,2023.1.1,59.93723373932769,
,,,,,,,,,,,,,Spring 1.jpg,这是春天吗？,是,Left,Break_material/Image/Spring 1.jpg,,,,,,,,,,,,,0,3,3,0,,,,,,,,,,,,,,,,,,,,,,,,,,,,,,,,,,,,,,,,,,,,,,,,,,,,,,,,,,,,,,,407.88136499997927,411.7462109000189,411.8924507999909,413.75844469998265,413.75844469998265,413.75844469998265,413.75844469998265,left,0,0.6375458999536932,,,,,,,,,,,,,,,,,,,,,,,009,001,2023-11-19_15h28.48.970,ETproject_Chi_2023.1.1,2023.1.1,59.93723373932769,
,,,,,,,,,,,,,Spring 2.jpg,这是冬天吗？,否,Right,Break_material/Image/Spring 2.jpg,,,,,,,,,,,,,0,4,4,1,,,,,,,,,,,,,,,,,,,,,,,,,,,,,,,,,,,,,,,,,,,,,,,,,,,,,,,,,,,,,,,414.534432800021,418.41033280000556,418.540262399998,420.4230618000147,420.4230618000147,420.4230618000147,420.4230618000147,right,0,0.3559825000120327,,,,,,,,,,,,,,,,,,,,,,,009,001,2023-11-19_15h28.48.970,ETproject_Chi_2023.1.1,2023.1.1,59.93723373932769,
,,,,,,,,,,,,,Spring 3.jpg,这是夏天吗？,否,Right,Break_material/Image/Spring 3.jpg,,,,,,,,,,,,,0,5,5,2,,,,,,,,,,,,,,,,,,,,,,,,,,,,,,,,,,,,,,,,,,,,,,,,,,,,,,,,,,,,,,,420.9079694999964,424.79250650003087,424.9047664999962,426.80405999999493,426.80405999999493,426.80405999999493,426.80405999999493,right,0,4.471457099949475,,,,,,,,,,,,,,,,,,,,,,,009,001,2023-11-19_15h28.48.970,ETproject_Chi_2023.1.1,2023.1.1,59.93723373932769,
,,,,,,,,,,,,,,,,,,,,,,,,,,,,,,,,,,,,,,,,,,,,,,,,,,,,,,,,,,,,,,,,,,,,,,,,,,,,,,,,,,,,,,,,,,,,,,,,,,,,,,,,,,431.3028502999805,431.3028502999805,space,4.092922699986957,,,,,,,,,,,,,,,,,,,009,001,2023-11-19_15h28.48.970,ETproject_Chi_2023.1.1,2023.1.1,59.93723373932769,
70,Month,十月 ,七月,,Vert,late,up,image/Chi_late.png,"[0, 0.4]","[0, -0.4]",3,incongruent,,,,,,,,,,,,,,,,,,,,,,0,0,0,19,,,,,,,,,,,,,,,,,,,,,,,,,,,,,,,,,,,,,,,,,,,,435.49299150001025,0.9993959999992512,436.5010751999798,436.5010751999798,437.3007702000323,437.41742660000455,437.41742660000455,437.41742660000455,up,1,2.0588243000092916,,,,,,,,,,,,,,,,,,,,,,,,,,,,,,,,,,,,,009,001,2023-11-19_15h28.48.970,ETproject_Chi_2023.1.1,2023.1.1,59.93723373932769,
29,Month,五月,九月 ,,Vert,late,down,image/Chi_late.png,"[0, 0.4]","[0, -0.4]",4,congruent,,,,,,,,,,,,,,,,,,,,,,0,1,1,21,,,,,,,,,,,,,,,,,,,,,,,,,,,,,,,,,,,,,,,,,,,,439.5094872000045,1.0110729999723844,440.51645510003436,440.59992080001393,441.39961900003254,441.4995846999809,441.4995846999809,441.4995846999809,down,1,1.4400579000357538,,,,,,,,,,,,,,,,,,,,,,,,,,,,,,,,,,,,,009,001,2023-11-19_15h28.48.970,ETproject_Chi_2023.1.1,2023.1.1,59.93723373932769,
39,Month,十一月 ,七月,,Hori,early,right,image/Chi_early.png,"[-0.4, 0]","[0.4, 0]",4,incongruent,,,,,,,,,,,,,,,,,,,,,,0,2,2,40,,,,,,,,,,,,,,,,,,,,,,,,,,,,,,,,,,,,,,,,,,,,442.979036499979,1.0104283000109717,443.9821022999822,444.0653278999962,444.86528830003226,444.9652323999908,444.9652323999908,444.9652323999908,right,1,1.2696680999943055,,,,,,,,,,,,,,,,,,,,,,,,,,,,,,,,,,,,,009,001,2023-11-19_15h28.48.970,ETproject_Chi_2023.1.1,2023.1.1,59.93723373932769,
13,Month,二月,三月,,Hori,late,right,image/Chi_late.png,"[-0.4, 0]","[0.4, 0]",1,congruent,,,,,,,,,,,,,,,,,,,,,,0,3,3,42,,,,,,,,,,,,,,,,,,,,,,,,,,,,,,,,,,,,,,,,,,,,446.27993810002226,1.0100515999947675,447.2812095999834,447.36434319999535,448.16415780002717,448.26401789998636,448.26401789998636,448.26401789998636,right,1,1.2118539999937639,,,,,,,,,,,,,,,,,,,,,,,,,,,,,,,,,,,,,009,001,2023-11-19_15h28.48.970,ETproject_Chi_2023.1.1,2023.1.1,59.93723373932769,
10,Month,二月,六月,,Hori,late,right,image/Chi_late.png,"[-0.4, 0]","[0.4, 0]",4,congruent,,,,,,,,,,,,,,,,,,,,,,0,4,4,37,,,,,,,,,,,,,,,,,,,,,,,,,,,,,,,,,,,,,,,,,,,,450.501524900028,0.9991980000049807,451.51295080001,451.5961871999898,452.3959534000023,452.49598880001577,452.49598880001577,452.49598880001577,right,1,2.62831149995327,,,,,,,,,,,,,,,,,,,,,,,,,,,,,,,,,,,,,009,001,2023-11-19_15h28.48.970,ETproject_Chi_2023.1.1,2023.1.1,59.93723373932769,
61,Month,十月 ,七月,,Vert,early,down,image/Chi_early.png,"[0, 0.4]","[0, -0.4]",3,incongruent,,,,,,,,,,,,,,,,,,,,,,0,5,5,16,,,,,,,,,,,,,,,,,,,,,,,,,,,,,,,,,,,,,,,,,,,,455.15543819998857,1.0130241000442766,456.1613558999961,456.2447840999812,457.04455669998424,457.1445180000155,457.1445180000155,457.1445180000155,down,1,1.428130499960389,,,,,,,,,,,,,,,,,,,,,,,,,,,,,,,,,,,,,009,001,2023-11-19_15h28.48.970,ETproject_Chi_2023.1.1,2023.1.1,59.93723373932769,
126,Week,星期四,星期二,,Hori,early,right,image/Chi_early.png,"[-0.4, 0]","[0.4, 0]",2,incongruent,,,,,,,,,,,,,,,,,,,,,,0,6,6,24,,,,,,,,,,,,,,,,,,,,,,,,,,,,,,,,,,,,,,,,,,,,458.5989271000144,1.0155628999928012,459.61045580002246,459.6935721000191,460.49328589998186,460.59341790003236,460.59341790003236,460.59341790003236,right,1,2.0335151000181213,,,,,,,,,,,,,,,,,,,,,,,,,,,,,,,,,,,,,009,001,2023-11-19_15h28.48.970,ETproject_Chi_2023.1.1,2023.1.1,59.93723373932769,
59,Month,五月,四月,,Hori,late,left,image/Chi_late.png,"[-0.4, 0]","[0.4, 0]",1,incongruent,,,,,,,,,,,,,,,,,,,,,,0,7,7,12,,,,,,,,,,,,,,,,,,,,,,,,,,,,,,,,,,,,,,,,,,,,462.66923719999613,1.0135110999690369,463.67563930002507,463.7589224000112,464.5587463999982,464.65879780001706,464.65879780001706,464.65879780001706,left,1,0.8731192999985069,,,,,,,,,,,,,,,,,,,,,,,,,,,,,,,,,,,,,009,001,2023-11-19_15h28.48.970,ETproject_Chi_2023.1.1,2023.1.1,59.93723373932769,
114,Week,星期四,星期五,,Vert,early,up,image/Chi_early.png,"[0, 0.4]","[0, -0.4]",1,congruent,,,,,,,,,,,,,,,,,,,,,,0,8,8,10,,,,,,,,,,,,,,,,,,,,,,,,,,,,,,,,,,,,,,,,,,,,465.5706945999991,1.0110559000167996,466.57473679998657,466.6579586000298,467.4575978000066,467.5577234000084,467.5577234000084,467.5577234000084,up,1,1.9426386999548413,,,,,,,,,,,,,,,,,,,,,,,,,,,,,,,,,,,,,009,001,2023-11-19_15h28.48.970,ETproject_Chi_2023.1.1,2023.1.1,59.93723373932769,
7,Month,七月,十一月 ,,Hori,early,left,image/Chi_early.png,"[-0.4, 0]","[0.4, 0]",4,congruent,,,,,,,,,,,,,,,,,,,,,,0,9,9,49,,,,,,,,,,,,,,,,,,,,,,,,,,,,,,,,,,,,,,,,,,,,469.5295457000029,1.0147316999500617,470.5399367000209,470.6232976000174,471.423130900017,471.52325680002104,471.52325680002104,471.52325680002104,left,1,0.9051844999776222,,,,,,,,,,,,,,,,,,,,,,,,,,,,,,,,,,,,,009,001,2023-11-19_15h28.48.970,ETproject_Chi_2023.1.1,2023.1.1,59.93723373932769,
57,Month,三月,二月,,Hori,late,left,image/Chi_late.png,"[-0.4, 0]","[0.4, 0]",1,incongruent,,,,,,,,,,,,,,,,,,,,,,0,10,10,13,,,,,,,,,,,,,,,,,,,,,,,,,,,,,,,,,,,,,,,,,,,,473.46811210003216,0.9994550000410527,474.4721321000252,474.55539470002986,475.35512010002276,475.45512070000404,475.45512070000404,475.45512070000404,left,1,1.1490851999842562,,,,,,,,,,,,,,,,,,,,,,,,,,,,,,,,,,,,,009,001,2023-11-19_15h28.48.970,ETproject_Chi_2023.1.1,2023.1.1,59.93723373932769,
23,Month,一月,二月 ,,Vert,early,up,image/Chi_early.png,"[0, 0.4]","[0, -0.4]",1,congruent,,,,,,,,,,,,,,,,,,,,,,0,11,11,30,,,,,,,,,,,,,,,,,,,,,,,,,,,,,,,,,,,,,,,,,,,,476.63321729999734,1.0105032999999821,477.6377554999781,477.7210478000343,478.52081539999926,478.6208267000038,478.6208267000038,478.6208267000038,up,1,0.9269602000131272,,,,,,,,,,,,,,,,,,,,,,,,,,,,,,,,,,,,,009,001,2023-11-19_15h28.48.970,ETproject_Chi_2023.1.1,2023.1.1,59.93723373932769,
6,Month,六月,九月 ,,Hori,early,left,image/Chi_early.png,"[-0.4, 0]","[0.4, 0]",3,congruent,,,,,,,,,,,,,,,,,,,,,,0,12,12,25,,,,,,,,,,,,,,,,,,,,,,,,,,,,,,,,,,,,,,,,,,,,479.57950390002225,1.0112243000185117,480.5867409000057,480.6702840999933,481.46980810002424,481.5699469000101,481.5699469000101,481.5699469000101,left,1,1.0176068000146188,,,,,,,,,,,,,,,,,,,,,,,,,,,,,,,,,,,,,009,001,2023-11-19_15h28.48.970,ETproject_Chi_2023.1.1,2023.1.1,59.93723373932769,
60,Month,十二月,十月 ,,Hori,late,left,image/Chi_late.png,"[-0.4, 0]","[0.4, 0]",2,incongruent,,,,,,,,,,,,,,,,,,,,,,0,13,13,45,,,,,,,,,,,,,,,,,,,,,,,,,,,,,,,,,,,,,,,,,,,,482.626737100014,0.999091099947691,483.6357824000297,483.71916799998144,484.51878779998515,484.61875840002904,484.61875840002904,484.61875840002904,left,1,1.1122165000415407,,,,,,,,,,,,,,,,,,,,,,,,,,,,,,,,,,,,,009,001,2023-11-19_15h28.48.970,ETproject_Chi_2023.1.1,2023.1.1,59.93723373932769,
141,Week,星期六,星期三 ,,Vert,early,down,image/Chi_early.png,"[0, 0.4]","[0, -0.4]",3,incongruent,,,,,,,,,,,,,,,,,,,,,,0,14,14,29,,,,,,,,,,,,,,,,,,,,,,,,,,,,,,,,,,,,,,,,,,,,485.7609773000004,0.9990464000147767,486.7679898000206,486.85146969999187,487.65094060002593,487.7511635000119,487.7511635000119,487.7511635000119,down,1,1.171838000009302,,,,,,,,,,,,,,,,,,,,,,,,,,,,,,,,,,,,,009,001,2023-11-19_15h28.48.970,ETproject_Chi_2023.1.1,2023.1.1,59.93723373932769,
1,Month,一月,四月,,Hori,early,left,image/Chi_early.png,"[-0.4, 0]","[0.4, 0]",3,congruent,,,,,,,,,,,,,,,,,,,,,,0,15,15,34,,,,,,,,,,,,,,,,,,,,,,,,,,,,,,,,,,,,,,,,,,,,488.9561237000162,0.9990450000041164,489.96697290003067,490.05031700001564,490.8500031000003,490.95000230002915,490.95000230002915,490.95000230002915,left,1,0.7345531000173651,,,,,,,,,,,,,,,,,,,,,,,,,,,,,,,,,,,,,009,001,2023-11-19_15h28.48.970,ETproject_Chi_2023.1.1,2023.1.1,59.93723373932769,
4,Month,四月,六月,,Hori,early,left,image/Chi_early.png,"[-0.4, 0]","[0.4, 0]",2,congruent,,,,,,,,,,,,,,,,,,,,,,0,16,16,20,,,,,,,,,,,,,,,,,,,,,,,,,,,,,,,,,,,,,,,,,,,,491.7225070000277,1.0129644999979064,492.7326028000098,492.81581210001605,493.6156820000033,493.7157686999999,493.7157686999999,493.7157686999999,left,1,0.6399235000135377,,,,,,,,,,,,,,,,,,,,,,,,,,,,,,,,,,,,,009,001,2023-11-19_15h28.48.970,ETproject_Chi_2023.1.1,2023.1.1,59.93723373932769,
2,Month,二月,五月,,Hori,early,left,image/Chi_early.png,"[-0.4, 0]","[0.4, 0]",3,congruent,,,,,,,,,,,,,,,,,,,,,,0,17,17,36,,,,,,,,,,,,,,,,,,,,,,,,,,,,,,,,,,,,,,,,,,,,495.3888455000124,1.0147517999866977,496.3983333000215,496.48151210002834,497.2813091999851,497.38120800000615,497.38120800000615,497.38120800000615,left,1,0.7662531000096351,,,,,,,,,,,,,,,,,,,,,,,,,,,,,,,,,,,,,009,001,2023-11-19_15h28.48.970,ETproject_Chi_2023.1.1,2023.1.1,59.93723373932769,
16,Month,七月,十月 ,,Hori,late,right,image/Chi_late.png,"[-0.4, 0]","[0.4, 0]",3,congruent,,,,,,,,,,,,,,,,,,,,,,0,18,18,43,,,,,,,,,,,,,,,,,,,,,,,,,,,,,,,,,,,,,,,,,,,,498.1763799000182,1.0150280999951065,499.1804026000318,499.26377140003024,500.06362590001663,500.16377129999455,500.16377129999455,500.16377129999455,right,1,0.8958132999832742,,,,,,,,,,,,,,,,,,,,,,,,,,,,,,,,,,,,,009,001,2023-11-19_15h28.48.970,ETproject_Chi_2023.1.1,2023.1.1,59.93723373932769,
98,Week,星期二,星期五,,Hori,early,left,image/Chi_early.png,"[-0.4, 0]","[0.4, 0]",3,congruent,,,,,,,,,,,,,,,,,,,,,,0,19,19,39,,,,,,,,,,,,,,,,,,,,,,,,,,,,,,,,,,,,,,,,,,,,501.09415760001866,1.0119113000109792,502.096209499985,502.17964520002715,502.9795234000194,503.0793865000014,503.0793865000014,503.0793865000014,left,1,0.7315960999694653,,,,,,,,,,,,,,,,,,,,,,,,,,,,,,,,,,,,,009,001,2023-11-19_15h28.48.970,ETproject_Chi_2023.1.1,2023.1.1,59.93723373932769,
84,Month,八月,七月,,Vert,late,up,image/Chi_late.png,"[0, 0.4]","[0, -0.4]",1,incongruent,,,,,,,,,,,,,,,,,,,,,,0,20,20,18,,,,,,,,,,,,,,,,,,,,,,,,,,,,,,,,,,,,,,,,,,,,503.8408442999935,1.0102235999656841,504.8454429000267,504.9287622999982,505.72847000003094,505.8284337000223,505.8284337000223,505.8284337000223,up,1,1.2637613999540918,,,,,,,,,,,,,,,,,,,,,,,,,,,,,,,,,,,,,009,001,2023-11-19_15h28.48.970,ETproject_Chi_2023.1.1,2023.1.1,59.93723373932769,
72,Month,四月,二月,,Vert,late,up,image/Chi_late.png,"[0, 0.4]","[0, -0.4]",2,incongruent,,,,,,,,,,,,,,,,,,,,,,0,21,21,41,,,,,,,,,,,,,,,,,,,,,,,,,,,,,,,,,,,,,,,,,,,,507.12031379999826,1.011411199986469,508.1277039999841,508.21112880000146,509.01069229998393,509.11070680001285,509.11070680001285,509.11070680001285,up,1,0.8604364999919198,,,,,,,,,,,,,,,,,,,,,,,,,,,,,,,,,,,,,009,001,2023-11-19_15h28.48.970,ETproject_Chi_2023.1.1,2023.1.1,59.93723373932769,
65,Month,七月,五月,,Vert,early,down,image/Chi_early.png,"[0, 0.4]","[0, -0.4]",2,incongruent,,,,,,,,,,,,,,,,,,,,,,0,22,22,11,,,,,,,,,,,,,,,,,,,,,,,,,,,,,,,,,,,,,,,,,,,,510.00698060001014,1.0097593999817036,511.01005610002903,511.0935116999899,511.89300799998455,511.99302280001575,511.99302280001575,511.99302280001575,up,0,1.0911429999978282,,,,,,,,,,,,,,,,,,,,,,,,,,,,,,,,,,,,,009,001,2023-11-19_15h28.48.970,ETproject_Chi_2023.1.1,2023.1.1,59.93723373932769,
48,Month,十月 ,八月,,Hori,early,right,image/Chi_early.png,"[-0.4, 0]","[0.4, 0]",2,incongruent,,,,,,,,,,,,,,,,,,,,,,0,23,23,32,,,,,,,,,,,,,,,,,,,,,,,,,,,,,,,,,,,,,,,,,,,,513.1188338000211,1.010647399991285,514.1257576000062,514.2089653000003,515.008751299989,515.1088110000128,515.1088110000128,515.1088110000128,right,1,1.2872398999752477,,,,,,,,,,,,,,,,,,,,,,,,,,,,,,,,,,,,,009,001,2023-11-19_15h28.48.970,ETproject_Chi_2023.1.1,2023.1.1,59.93723373932769,
99,Week,星期三 ,星期五,,Hori,early,left,image/Chi_early.png,"[-0.4, 0]","[0.4, 0]",2,congruent,,,,,,,,,,,,,,,,,,,,,,0,24,24,3,,,,,,,,,,,,,,,,,,,,,,,,,,,,,,,,,,,,,,,,,,,,516.4338706000126,1.0124032000312582,517.4412542000064,517.5246871000272,518.3243000999792,518.4242316000164,518.4242316000164,518.4242316000164,left,1,0.9961712000076659,,,,,,,,,,,,,,,,,,,,,,,,,,,,,,,,,,,,,009,001,2023-11-19_15h28.48.970,ETproject_Chi_2023.1.1,2023.1.1,59.93723373932769,
57,Month,六月,三月,,Vert,early,down,image/Chi_early.png,"[0, 0.4]","[0, -0.4]",3,incongruent,,,,,,,,,,,,,,,,,,,,,,0,25,25,4,,,,,,,,,,,,,,,,,,,,,,,,,,,,,,,,,,,,,,,,,,,,519.447318200022,1.0129655000055209,520.4571396000101,520.5402934000012,521.3401583000086,521.4400430999813,521.4400430999813,521.4400430999813,down,1,0.9069979999912903,,,,,,,,,,,,,,,,,,,,,,,,,,,,,,,,,,,,,009,001,2023-11-19_15h28.48.970,ETproject_Chi_2023.1.1,2023.1.1,59.93723373932769,
46,Month,八月,六月,,Hori,early,right,image/Chi_early.png,"[-0.4, 0]","[0.4, 0]",2,incongruent,,,,,,,,,,,,,,,,,,,,,,0,26,26,6,,,,,,,,,,,,,,,,,,,,,,,,,,,,,,,,,,,,,,,,,,,,522.3823503000312,1.0110572000266984,523.3894243999966,523.4725890000118,524.2723516999977,524.372313000029,524.372313000029,524.372313000029,right,1,1.0314197999541648,,,,,,,,,,,,,,,,,,,,,,,,,,,,,,,,,,,,,009,001,2023-11-19_15h28.48.970,ETproject_Chi_2023.1.1,2023.1.1,59.93723373932769,
134,Week,星期五,星期三 ,,Hori,late,left,image/Chi_late.png,"[-0.4, 0]","[0.4, 0]",2,incongruent,,,,,,,,,,,,,,,,,,,,,,0,27,27,47,,,,,,,,,,,,,,,,,,,,,,,,,,,,,,,,,,,,,,,,,,,,525.4341109999805,1.0155533000361174,526.4383619999862,526.5216127000167,527.3214882999891,527.4212924999883,527.4212924999883,527.4212924999883,left,1,1.4466335999895819,,,,,,,,,,,,,,,,,,,,,,,,,,,,,,,,,,,,,009,001,2023-11-19_15h28.48.970,ETproject_Chi_2023.1.1,2023.1.1,59.93723373932769,
21,Month,十月 ,十一月 ,,Hori,late,right,image/Chi_late.png,"[-0.4, 0]","[0.4, 0]",1,congruent,,,,,,,,,,,,,,,,,,,,,,0,28,28,5,,,,,,,,,,,,,,,,,,,,,,,,,,,,,,,,,,,,,,,,,,,,528.8956123000244,1.011925800004974,529.903792600031,529.9873154999805,530.7868496000301,530.8867424000055,530.8867424000055,530.8867424000055,right,1,0.9080838999943808,,,,,,,,,,,,,,,,,,,,,,,,,,,,,,,,,,,,,009,001,2023-11-19_15h28.48.970,ETproject_Chi_2023.1.1,2023.1.1,59.93723373932769,
42,Month,九月 ,十月 ,,Vert,late,down,image/Chi_late.png,"[0, 0.4]","[0, -0.4]",1,congruent,,,,,,,,,,,,,,,,,,,,,,0,29,29,0,,,,,,,,,,,,,,,,,,,,,,,,,,,,,,,,,,,,,,,,,,,,531.8300797999837,1.0107445000321604,532.8361752000055,532.9195248000324,533.7192971000331,533.8193366000196,533.8193366000196,533.8193366000196,down,1,1.208308000001125,,,,,,,,,,,,,,,,,,,,,,,,,,,,,,,,,,,,,009,001,2023-11-19_15h28.48.970,ETproject_Chi_2023.1.1,2023.1.1,59.93723373932769,
55,Month,四月,一月,,Vert,early,down,image/Chi_early.png,"[0, 0.4]","[0, -0.4]",3,incongruent,,,,,,,,,,,,,,,,,,,,,,0,30,30,22,,,,,,,,,,,,,,,,,,,,,,,,,,,,,,,,,,,,,,,,,,,,535.0711902999901,1.0095759000396356,536.0850857000332,536.1519988999935,536.9515081000281,537.051424300007,537.051424300007,537.051424300007,down,1,1.1610595000092871,,,,,,,,,,,,,,,,,,,,,,,,,,,,,,,,,,,,,009,001,2023-11-19_15h28.48.970,ETproject_Chi_2023.1.1,2023.1.1,59.93723373932769,
16,Month,八月,十二月,,Hori,late,right,image/Chi_late.png,"[-0.4, 0]","[0.4, 0]",4,congruent,,,,,,,,,,,,,,,,,,,,,,0,31,31,27,,,,,,,,,,,,,,,,,,,,,,,,,,,,,,,,,,,,,,,,,,,,538.2466787000303,1.0112129999906756,539.2507227000315,539.3340696999803,540.1337895999895,540.2338023000048,540.2338023000048,540.2338023000048,left,0,0.9624185999855399,,,,,,,,,,,,,,,,,,,,,,,,,,,,,,,,,,,,,009,001,2023-11-19_15h28.48.970,ETproject_Chi_2023.1.1,2023.1.1,59.93723373932769,
102,Week,星期六,星期日,,Hori,early,left,image/Chi_early.png,"[-0.4, 0]","[0.4, 0]",1,congruent,,,,,,,,,,,,,,,,,,,,,,0,32,32,15,,,,,,,,,,,,,,,,,,,,,,,,,,,,,,,,,,,,,,,,,,,,541.2311616999796,1.0130937000503764,542.2331257000333,542.3163488000282,543.1161645000102,543.2161033999873,543.2161033999873,543.2161033999873,left,1,0.8993884000228718,,,,,,,,,,,,,,,,,,,,,,,,,,,,,,,,,,,,,009,001,2023-11-19_15h28.48.970,ETproject_Chi_2023.1.1,2023.1.1,59.93723373932769,
21,Month,五月,九月 ,,Vert,early,up,image/Chi_early.png,"[0, 0.4]","[0, -0.4]",4,congruent,,,,,,,,,,,,,,,,,,,,,,0,33,33,46,,,,,,,,,,,,,,,,,,,,,,,,,,,,,,,,,,,,,,,,,,,,544.1366486999905,1.015152899955865,545.1487390000257,545.2319992000121,546.0318194000283,546.1316930000321,546.1316930000321,546.1316930000321,up,1,1.5194321000017226,,,,,,,,,,,,,,,,,,,,,,,,,,,,,,,,,,,,,009,001,2023-11-19_15h28.48.970,ETproject_Chi_2023.1.1,2023.1.1,59.93723373932769,
43,Month,十月 ,七月,,Hori,early,right,image/Chi_early.png,"[-0.4, 0]","[0.4, 0]",3,incongruent,,,,,,,,,,,,,,,,,,,,,,0,34,34,7,,,,,,,,,,,,,,,,,,,,,,,,,,,,,,,,,,,,,,,,,,,,548.6875675999909,0.9991707999724895,549.6973502000328,549.7807430999819,550.5805781999952,550.6804536000127,550.6804536000127,550.6804536000127,right,1,2.210974299989175,,,,,,,,,,,,,,,,,,,,,,,,,,,,,,,,,,,,,009,001,2023-11-19_15h28.48.970,ETproject_Chi_2023.1.1,2023.1.1,59.93723373932769,
39,Month,九月 ,十一月 ,,Vert,late,down,image/Chi_late.png,"[0, 0.4]","[0, -0.4]",2,congruent,,,,,,,,,,,,,,,,,,,,,,0,35,35,14,,,,,,,,,,,,,,,,,,,,,,,,,,,,,,,,,,,,,,,,,,,,552.9250597000355,1.0116226999671198,553.9293303000159,554.0125787000288,554.8123783000046,554.9122901000082,554.9122901000082,554.9122901000082,down,1,0.8106001999694854,,,,,,,,,,,,,,,,,,,,,,,,,,,,,,,,,,,,,009,001,2023-11-19_15h28.48.970,ETproject_Chi_2023.1.1,2023.1.1,59.93723373932769,
18,Month,九月 ,十二月,,Hori,late,right,image/Chi_late.png,"[-0.4, 0]","[0.4, 0]",3,congruent,,,,,,,,,,,,,,,,,,,,,,0,36,36,9,,,,,,,,,,,,,,,,,,,,,,,,,,,,,,,,,,,,,,,,,,,,555.7527597000008,1.0109177999547683,556.7614269999904,556.8452792000026,557.644607299997,557.7446668000193,557.7446668000193,557.7446668000193,right,1,0.7792620999971405,,,,,,,,,,,,,,,,,,,,,,,,,,,,,,,,,,,,,009,001,2023-11-19_15h28.48.970,ETproject_Chi_2023.1.1,2023.1.1,59.93723373932769,
53,Month,五月,三月,,Hori,late,left,image/Chi_late.png,"[-0.4, 0]","[0.4, 0]",2,incongruent,,,,,,,,,,,,,,,,,,,,,,0,37,37,2,,,,,,,,,,,,,,,,,,,,,,,,,,,,,,,,,,,,,,,,,,,,558.5498491000035,1.0147703000111505,559.5606969000073,559.6439372000168,560.4437700000126,560.5437436000211,560.5437436000211,560.5437436000211,left,1,1.0122224000515416,,,,,,,,,,,,,,,,,,,,,,,,,,,,,,,,,,,,,009,001,2023-11-19_15h28.48.970,ETproject_Chi_2023.1.1,2023.1.1,59.93723373932769,
82,Month,六月,五月,,Vert,late,up,image/Chi_late.png,"[0, 0.4]","[0, -0.4]",1,incongruent,,,,,,,,,,,,,,,,,,,,,,0,38,38,33,,,,,,,,,,,,,,,,,,,,,,,,,,,,,,,,,,,,,,,,,,,,561.5822265000315,1.013904299994465,562.5929056000314,562.6762919999892,563.4760143000167,563.5760055999854,563.5760055999854,563.5760055999854,down,0,1.1561564999865368,,,,,,,,,,,,,,,,,,,,,,,,,,,,,,,,,,,,,009,001,2023-11-19_15h28.48.970,ETproject_Chi_2023.1.1,2023.1.1,59.93723373932769,
25,Month,一月,五月,,Vert,late,down,image/Chi_late.png,"[0, 0.4]","[0, -0.4]",4,congruent,,,,,,,,,,,,,,,,,,,,,,0,39,39,23,,,,,,,,,,,,,,,,,,,,,,,,,,,,,,,,,,,,,,,,,,,,564.7647301999968,1.015306299959775,565.7753109000041,565.8586406999966,566.6583261000342,566.7583804000169,566.7583804000169,566.7583804000169,down,1,0.9884383999742568,,,,,,,,,,,,,,,,,,,,,,,,,,,,,,,,,,,,,009,001,2023-11-19_15h28.48.970,ETproject_Chi_2023.1.1,2023.1.1,59.93723373932769,
26,Month,八月,十一月 ,,Vert,early,up,image/Chi_early.png,"[0, 0.4]","[0, -0.4]",3,congruent,,,,,,,,,,,,,,,,,,,,,,0,40,40,44,,,,,,,,,,,,,,,,,,,,,,,,,,,,,,,,,,,,,,,,,,,,567.7892457999988,1.010783400037326,568.7909632999799,568.8744512000121,569.6741563000251,569.7737418999895,569.7737418999895,569.7737418999895,up,1,1.0300175999873318,,,,,,,,,,,,,,,,,,,,,,,,,,,,,,,,,,,,,009,001,2023-11-19_15h28.48.970,ETproject_Chi_2023.1.1,2023.1.1,59.93723373932769,
108,Week,星期五,星期六,,Hori,late,right,image/Chi_late.png,"[-0.4, 0]","[0.4, 0]",1,congruent,,,,,,,,,,,,,,,,,,,,,,0,41,41,1,,,,,,,,,,,,,,,,,,,,,,,,,,,,,,,,,,,,,,,,,,,,570.8405039000208,1.011442699993495,571.8400253999862,571.923203399987,572.7232700000168,572.823057200003,572.823057200003,572.823057200003,right,1,2.4839480000082403,,,,,,,,,,,,,,,,,,,,,,,,,,,,,,,,,,,,,009,001,2023-11-19_15h28.48.970,ETproject_Chi_2023.1.1,2023.1.1,59.93723373932769,
11,Month,十一月 ,十二月,,Hori,early,left,image/Chi_early.png,"[-0.4, 0]","[0.4, 0]",1,congruent,,,,,,,,,,,,,,,,,,,,,,0,42,42,28,,,,,,,,,,,,,,,,,,,,,,,,,,,,,,,,,,,,,,,,,,,,576.3472181999823,1.0158127000322565,577.3548279000097,577.4383039000095,578.2378749999916,578.3379277000204,578.3379277000204,578.3379277000204,left,1,3.242592800001148,,,,,,,,,,,,,,,,,,,,,,,,,,,,,,,,,,,,,009,001,2023-11-19_15h28.48.970,ETproject_Chi_2023.1.1,2023.1.1,59.93723373932769,
111,Week,星期一,星期三 ,,Vert,early,up,image/Chi_early.png,"[0, 0.4]","[0, -0.4]",2,congruent,,,,,,,,,,,,,,,,,,,,,,0,43,43,8,,,,,,,,,,,,,,,,,,,,,,,,,,,,,,,,,,,,,,,,,,,,581.6130984000047,1.010998899990227,582.6198960000183,582.7032217999804,583.5026978999958,583.602905399981,583.602905399981,583.602905399981,up,1,1.0492491000331938,,,,,,,,,,,,,,,,,,,,,,,,,,,,,,,,,,,,,009,001,2023-11-19_15h28.48.970,ETproject_Chi_2023.1.1,2023.1.1,59.93723373932769,
123,Week,星期六,星期日,,Vert,late,down,image/Chi_late.png,"[0, 0.4]","[0, -0.4]",1,congruent,,,,,,,,,,,,,,,,,,,,,,0,44,44,31,,,,,,,,,,,,,,,,,,,,,,,,,,,,,,,,,,,,,,,,,,,,584.6893522000173,1.010199600015767,585.7021581000299,585.7685982999974,586.5684199000243,586.6685046000057,586.6685046000057,586.6685046000057,down,1,1.0542596000013873,,,,,,,,,,,,,,,,,,,,,,,,,,,,,,,,,,,,,009,001,2023-11-19_15h28.48.970,ETproject_Chi_2023.1.1,2023.1.1,59.93723373932769,
126,Week,星期五,星期二,,Hori,early,right,image/Chi_early.png,"[-0.4, 0]","[0.4, 0]",3,incongruent,,,,,,,,,,,,,,,,,,,,,,0,45,45,17,,,,,,,,,,,,,,,,,,,,,,,,,,,,,,,,,,,,,,,,,,,,587.762985599984,1.0121514999773353,588.7676764000207,588.8511245999835,589.6504806000157,589.7507234999794,589.7507234999794,589.7507234999794,right,1,1.2054962000111118,,,,,,,,,,,,,,,,,,,,,,,,,,,,,,,,,,,,,009,001,2023-11-19_15h28.48.970,ETproject_Chi_2023.1.1,2023.1.1,59.93723373932769,
34,Month,四月,六月,,Vert,late,down,image/Chi_late.png,"[0, 0.4]","[0, -0.4]",2,congruent,,,,,,,,,,,,,,,,,,,,,,0,46,46,38,,,,,,,,,,,,,,,,,,,,,,,,,,,,,,,,,,,,,,,,,,,,590.9947592000244,1.0121640000143088,592.0001503999811,592.0833579000318,592.8827862000326,592.9830146000022,592.9830146000022,592.9830146000022,down,1,1.3650553000043146,,,,,,,,,,,,,,,,,,,,,,,,,,,,,,,,,,,,,009,001,2023-11-19_15h28.48.970,ETproject_Chi_2023.1.1,2023.1.1,59.93723373932769,
14,Month,四月,六月,,Hori,late,right,image/Chi_late.png,"[-0.4, 0]","[0.4, 0]",2,congruent,,,,,,,,,,,,,,,,,,,,,,0,47,47,26,,,,,,,,,,,,,,,,,,,,,,,,,,,,,,,,,,,,,,,,,,,,594.3715668999939,1.0115571000496857,595.382322999998,595.4655467999983,596.2652859999798,596.3653220999986,596.3653220999986,596.3653220999986,right,1,0.8546550999744795,,,,,,,,,,,,,,,,,,,,,,,,,,,,,,,,,,,,,009,001,2023-11-19_15h28.48.970,ETproject_Chi_2023.1.1,2023.1.1,59.93723373932769,
68,Month,十月 ,八月,,Vert,early,down,image/Chi_early.png,"[0, 0.4]","[0, -0.4]",2,incongruent,,,,,,,,,,,,,,,,,,,,,,0,48,48,48,,,,,,,,,,,,,,,,,,,,,,,,,,,,,,,,,,,,,,,,,,,,597.2592699999805,1.011701899988111,598.2646168000065,598.3479486000142,599.1476093999809,599.2476438999875,599.2476438999875,599.2476438999875,down,1,2.1321815000264905,,,,,,,,,,,,,,,,,,,,,,,,,,,,,,,,,,,,,009,001,2023-11-19_15h28.48.970,ETproject_Chi_2023.1.1,2023.1.1,59.93723373932769,
142,Week,星期日,星期四,,Vert,early,down,image/Chi_early.png,"[0, 0.4]","[0, -0.4]",3,incongruent,,,,,,,,,,,,,,,,,,,,,,0,49,49,35,,,,,,,,,,,,,,,,,,,,,,,,,,,,,,,,,,,,,,,,,,,,601.4016966000199,1.0152967000030912,602.4132259000326,602.4965069000027,603.2962761999806,603.3962941000354,603.3962941000354,603.3962941000354,down,1,1.3508887000498362,,,,,,,,,,,,,,,,,,,,,,,,,,,,,,,,,,,,,009,001,2023-11-19_15h28.48.970,ETproject_Chi_2023.1.1,2023.1.1,59.93723373932769,
,,,,,,,,,,,,,,,,,,,,,,,,,,,,,,,,,,,,,,,,,,,,,,,,,,,,,,,,,,,,,,,,,,,,,,,,,,,,,,,,,,,,,,,,,,,,,,,,,,,,,,,,,,,,,,604.7793425000273,604.7793425000273,space,3.4315395999583416,,,,,,,,,,,,,,,009,001,2023-11-19_15h28.48.970,ETproject_Chi_2023.1.1,2023.1.1,59.93723373932769,
,,,,,,,,,,,,,Spring 2.jpg,这是冬天吗？,否,Right,Break_material/Image/Spring 2.jpg,,,,,,,,,,,,,,,,,,,,,0,0,0,1,,,,,,,,,,,,,,,,,,,,,,,,,,,,,,,,,,,,,,,,,,,,,,,,,,,,,,,608.3151665999903,612.213743100001,612.3265163000324,614.2260218000156,614.2260218000156,614.2260218000156,614.2260218000156,right,0,0.536758899979759,,,,,,,,,,,,,,,,,,,,,,,009,001,2023-11-19_15h28.48.970,ETproject_Chi_2023.1.1,2023.1.1,59.93723373932769,
,,,,,,,,,,,,,Spring 4.jpg,这是秋天吗？,否,Right,Break_material/Image/Spring 4.jpg,,,,,,,,,,,,,,,,,,,,,0,1,1,3,,,,,,,,,,,,,,,,,,,,,,,,,,,,,,,,,,,,,,,,,,,,,,,,,,,,,,,614.9990973999957,618.7789819000172,619.0077995000174,620.7904938000138,620.7904938000138,620.7904938000138,620.7904938000138,right,0,1.4139853999949992,,,,,,,,,,,,,,,,,,,,,,,009,001,2023-11-19_15h28.48.970,ETproject_Chi_2023.1.1,2023.1.1,59.93723373932769,
,,,,,,,,,,,,,Spring 5.jpg,这是冬天吗？,否,Right,Break_material/Image/Spring 5.jpg,,,,,,,,,,,,,,,,,,,,,0,2,2,4,,,,,,,,,,,,,,,,,,,,,,,,,,,,,,,,,,,,,,,,,,,,,,,,,,,,,,,622.6785332,626.2100239000283,626.6885053000296,628.2215637000045,628.2215637000045,628.2215637000045,628.2215637000045,left,0,2.422778800013475,,,,,,,,,,,,,,,,,,,,,,,009,001,2023-11-19_15h28.48.970,ETproject_Chi_2023.1.1,2023.1.1,59.93723373932769,
,,,,,,,,,,,,,Spring 1.jpg,这是春天吗？,是,Left,Break_material/Image/Spring 1.jpg,,,,,,,,,,,,,,,,,,,,,0,3,3,0,,,,,,,,,,,,,,,,,,,,,,,,,,,,,,,,,,,,,,,,,,,,,,,,,,,,,,,630.9038192000007,634.6559186999802,634.9024996000226,636.6684124000021,636.6684124000021,636.6684124000021,636.6684124000021,left,0,0.3348085000179708,,,,,,,,,,,,,,,,,,,,,,,009,001,2023-11-19_15h28.48.970,ETproject_Chi_2023.1.1,2023.1.1,59.93723373932769,
,,,,,,,,,,,,,Spring 6.jpg,这是春天吗？,是,Left,Break_material/Image/Spring 6.jpg,,,,,,,,,,,,,,,,,,,,,0,4,4,5,,,,,,,,,,,,,,,,,,,,,,,,,,,,,,,,,,,,,,,,,,,,,,,,,,,,,,,637.5838559999829,641.0231121000252,641.5833859000122,643.0329850999988,643.0329850999988,643.0329850999988,643.0329850999988,left,0,0.44264920003479347,,,,,,,,,,,,,,,,,,,,,,,009,001,2023-11-19_15h28.48.970,ETproject_Chi_2023.1.1,2023.1.1,59.93723373932769,
,,,,,,,,,,,,,Spring 3.jpg,这是夏天吗？,否,Right,Break_material/Image/Spring 3.jpg,,,,,,,,,,,,,,,,,,,,,0,5,5,2,,,,,,,,,,,,,,,,,,,,,,,,,,,,,,,,,,,,,,,,,,,,,,,,,,,,,,,643.7696335000219,647.4851665000315,647.7814605000312,649.4975058999844,649.4975058999844,649.4975058999844,649.4975058999844,left,0,0.353367600007914,,,,,,,,,,,,,,,,,,,,,,,009,001,2023-11-19_15h28.48.970,ETproject_Chi_2023.1.1,2023.1.1,59.93723373932769,
,,,,,,,,,,,,,,,,,,,,,,,,,,,,,,,,,,,,,,,,,,,,,,,,,,,,,,,,,,,,,,,,,,,,,,,,,,,,,,,,,,,,,,,,,,,,,,,,,,,,,,,,,,,,,,,,,,649.880800599989,649.880800599989,space,1.8660141000291333,,,,,,,,,,,009,001,2023-11-19_15h28.48.970,ETproject_Chi_2023.1.1,2023.1.1,59.93723373932769,
105,Week,星期二,星期五,,Hori,late,right,image/Chi_late.png,"[-0.4, 0]","[0.4, 0]",3,congruent,,,,,,,,,,,,,,,,,,,,,,,,,,,,,,0,0,0,42,,,,,,,,,,,,,,,,,,,,,,,,,,,,,,,,,,,,651.8243818000192,1.0154826000216417,652.8297975999885,652.8631189999869,653.66297569999,653.762860900024,653.762860900024,653.762860900024,right,1,0.8014200000325218,,,,,,,,,,,,,,,,,,,,,,,,,,,,,,,,,,,,,009,001,2023-11-19_15h28.48.970,ETproject_Chi_2023.1.1,2023.1.1,59.93723373932769,
68,Month,三月,二月,,Vert,early,down,image/Chi_early.png,"[0, 0.4]","[0, -0.4]",1,incongruent,,,,,,,,,,,,,,,,,,,,,,,,,,,,,,0,1,1,46,,,,,,,,,,,,,,,,,,,,,,,,,,,,,,,,,,,,654.6127886000322,1.0094060000265017,655.6122627999866,655.6954107999918,656.4952164000133,656.5952477999963,656.5952477999963,656.5952477999963,down,1,1.041222599975299,,,,,,,,,,,,,,,,,,,,,,,,,,,,,,,,,,,,,009,001,2023-11-19_15h28.48.970,ETproject_Chi_2023.1.1,2023.1.1,59.93723373932769,
149,Week,星期五,星期四,,Vert,late,up,image/Chi_late.png,"[0, 0.4]","[0, -0.4]",1,incongruent,,,,,,,,,,,,,,,,,,,,,,,,,,,,,,0,2,2,8,,,,,,,,,,,,,,,,,,,,,,,,,,,,,,,,,,,,657.6820431000087,1.0121973000350408,658.6945899000275,658.7610541000031,659.5607976000174,659.6608862000285,659.6608862000285,659.6608862000285,up,1,1.3103922000154853,,,,,,,,,,,,,,,,,,,,,,,,,,,,,,,,,,,,,009,001,2023-11-19_15h28.48.970,ETproject_Chi_2023.1.1,2023.1.1,59.93723373932769,
33,Month,十一月 ,十二月,,Vert,early,up,image/Chi_early.png,"[0, 0.4]","[0, -0.4]",1,congruent,,,,,,,,,,,,,,,,,,,,,,,,,,,,,,0,3,3,2,,,,,,,,,,,,,,,,,,,,,,,,,,,,,,,,,,,,661.0106104000006,1.0103960999986157,662.0100422999822,662.0933588999906,662.8930426000152,662.9930441000033,662.9930441000033,662.9930441000033,up,1,0.9143717000260949,,,,,,,,,,,,,,,,,,,,,,,,,,,,,,,,,,,,,009,001,2023-11-19_15h28.48.970,ETproject_Chi_2023.1.1,2023.1.1,59.93723373932769,
51,Month,七月,三月,,Vert,early,down,image/Chi_early.png,"[0, 0.4]","[0, -0.4]",4,incongruent,,,,,,,,,,,,,,,,,,,,,,,,,,,,,,0,4,4,12,,,,,,,,,,,,,,,,,,,,,,,,,,,,,,,,,,,,663.9358032000018,1.0100455999490805,664.942478300014,665.0257222999935,665.8254633999895,665.9254481000244,665.9254481000244,665.9254481000244,down,1,0.789833200047724,,,,,,,,,,,,,,,,,,,,,,,,,,,,,,,,,,,,,009,001,2023-11-19_15h28.48.970,ETproject_Chi_2023.1.1,2023.1.1,59.93723373932769,
127,Week,星期四,星期三 ,,Hori,early,right,image/Chi_early.png,"[-0.4, 0]","[0.4, 0]",1,incongruent,,,,,,,,,,,,,,,,,,,,,,,,,,,,,,0,5,5,48,,,,,,,,,,,,,,,,,,,,,,,,,,,,,,,,,,,,666.7507369000232,1.01073030004045,667.7583655000199,667.8418017000076,668.641237200005,668.7414164000074,668.7414164000074,668.7414164000074,right,1,0.8299303000094369,,,,,,,,,,,,,,,,,,,,,,,,,,,,,,,,,,,,,009,001,2023-11-19_15h28.48.970,ETproject_Chi_2023.1.1,2023.1.1,59.93723373932769,
32,Month,十月 ,十一月 ,,Vert,early,up,image/Chi_early.png,"[0, 0.4]","[0, -0.4]",1,congruent,,,,,,,,,,,,,,,,,,,,,,,,,,,,,,0,6,6,44,,,,,,,,,,,,,,,,,,,,,,,,,,,,,,,,,,,,669.5954089000006,1.015539499989245,670.6072141000186,670.6905899000121,671.4902800000273,671.5902559999959,671.5902559999959,671.5902559999959,up,1,1.1332307999837212,,,,,,,,,,,,,,,,,,,,,,,,,,,,,,,,,,,,,009,001,2023-11-19_15h28.48.970,ETproject_Chi_2023.1.1,2023.1.1,59.93723373932769,
76,Month,十一月 ,十月 ,,Vert,early,down,image/Chi_early.png,"[0, 0.4]","[0, -0.4]",1,incongruent,,,,,,,,,,,,,,,,,,,,,,,,,,,,,,0,7,7,1,,,,,,,,,,,,,,,,,,,,,,,,,,,,,,,,,,,,672.746003600012,1.0150945000350475,673.756321199995,673.8394892999786,674.6391956000007,674.7394169000327,674.7394169000327,674.7394169000327,down,1,0.9927059999899939,,,,,,,,,,,,,,,,,,,,,,,,,,,,,,,,,,,,,009,001,2023-11-19_15h28.48.970,ETproject_Chi_2023.1.1,2023.1.1,59.93723373932769,
50,Month,六月,二月,,Vert,early,down,image/Chi_early.png,"[0, 0.4]","[0, -0.4]",4,incongruent,,,,,,,,,,,,,,,,,,,,,,,,,,,,,,0,8,8,30,,,,,,,,,,,,,,,,,,,,,,,,,,,,,,,,,,,,675.7601766000153,1.0145479000057094,676.7718218999798,676.8551441000309,677.6549016999779,677.7549695000052,677.7549695000052,677.7549695000052,down,1,0.7847524000098929,,,,,,,,,,,,,,,,,,,,,,,,,,,,,,,,,,,,,009,001,2023-11-19_15h28.48.970,ETproject_Chi_2023.1.1,2023.1.1,59.93723373932769,
55,Month,七月,五月,,Hori,late,left,image/Chi_late.png,"[-0.4, 0]","[0.4, 0]",2,incongruent,,,,,,,,,,,,,,,,,,,,,,,,,,,,,,0,9,9,11,,,,,,,,,,,,,,,,,,,,,,,,,,,,,,,,,,,,678.5875181999872,1.0108356000273488,679.587563899986,679.6708920000237,680.4705959000275,680.5708372999798,680.5708372999798,680.5708372999798,right,0,0.6648071999661624,,,,,,,,,,,,,,,,,,,,,,,,,,,,,,,,,,,,,009,001,2023-11-19_15h28.48.970,ETproject_Chi_2023.1.1,2023.1.1,59.93723373932769,
122,Week,星期五,星期六,,Vert,late,down,image/Chi_late.png,"[0, 0.4]","[0, -0.4]",1,congruent,,,,,,,,,,,,,,,,,,,,,,,,,,,,,,0,10,10,38,,,,,,,,,,,,,,,,,,,,,,,,,,,,,,,,,,,,681.2608305999893,1.0121950000175275,682.2702341999975,682.3533696000231,683.1530658000265,683.2531006000354,683.2531006000354,683.2531006000354,down,1,1.110805599950254,,,,,,,,,,,,,,,,,,,,,,,,,,,,,,,,,,,,,009,001,2023-11-19_15h28.48.970,ETproject_Chi_2023.1.1,2023.1.1,59.93723373932769,
58,Month,十月 ,八月,,Hori,late,left,image/Chi_late.png,"[-0.4, 0]","[0.4, 0]",2,incongruent,,,,,,,,,,,,,,,,,,,,,,,,,,,,,,0,11,11,26,,,,,,,,,,,,,,,,,,,,,,,,,,,,,,,,,,,,684.3949462000164,1.0114557999768294,685.4024109999882,685.485747400031,686.2853982999804,686.3853648999939,686.3853648999939,686.3853648999939,left,1,1.0828791999956593,,,,,,,,,,,,,,,,,,,,,,,,,,,,,,,,,,,,,009,001,2023-11-19_15h28.48.970,ETproject_Chi_2023.1.1,2023.1.1,59.93723373932769,
119,Week,星期二,星期四,,Vert,late,down,image/Chi_late.png,"[0, 0.4]","[0, -0.4]",2,congruent,,,,,,,,,,,,,,,,,,,,,,,,,,,,,,0,12,12,45,,,,,,,,,,,,,,,,,,,,,,,,,,,,,,,,,,,,687.4947624999913,1.0111238000099547,688.501522400009,688.5846064999932,689.3843565999996,689.4843865000294,689.4843865000294,689.4843865000294,down,1,0.9430246999836527,,,,,,,,,,,,,,,,,,,,,,,,,,,,,,,,,,,,,009,001,2023-11-19_15h28.48.970,ETproject_Chi_2023.1.1,2023.1.1,59.93723373932769,
31,Month,七月,十一月 ,,Vert,late,down,image/Chi_late.png,"[0, 0.4]","[0, -0.4]",4,congruent,,,,,,,,,,,,,,,,,,,,,,,,,,,,,,0,13,13,6,,,,,,,,,,,,,,,,,,,,,,,,,,,,,,,,,,,,690.4591606000322,1.0113713000318967,691.4669558000169,691.5505040999851,692.3502152999863,692.4502787999809,692.4502787999809,692.4502787999809,down,1,0.8891987000242807,,,,,,,,,,,,,,,,,,,,,,,,,,,,,,,,,,,,,009,001,2023-11-19_15h28.48.970,ETproject_Chi_2023.1.1,2023.1.1,59.93723373932769,
38,Month,十月 ,六月,,Hori,early,right,image/Chi_early.png,"[-0.4, 0]","[0.4, 0]",4,incongruent,,,,,,,,,,,,,,,,,,,,,,,,,,,,,,0,14,14,18,,,,,,,,,,,,,,,,,,,,,,,,,,,,,,,,,,,,693.3776724000345,1.0153253999887966,694.3827124999953,694.4660202999949,695.2657366000349,695.3657484999858,695.3657484999858,695.3657484999858,left,0,0.9345716999960132,,,,,,,,,,,,,,,,,,,,,,,,,,,,,,,,,,,,,009,001,2023-11-19_15h28.48.970,ETproject_Chi_2023.1.1,2023.1.1,59.93723373932769,
107,Week,星期四,星期日,,Hori,late,right,image/Chi_late.png,"[-0.4, 0]","[0.4, 0]",3,congruent,,,,,,,,,,,,,,,,,,,,,,,,,,,,,,0,15,15,34,,,,,,,,,,,,,,,,,,,,,,,,,,,,,,,,,,,,696.3404655000195,1.0140656000003219,697.3485243000323,697.4316857000231,698.2315401000087,698.3316372000263,698.3316372000263,698.3316372000263,right,1,1.1601815999601968,,,,,,,,,,,,,,,,,,,,,,,,,,,,,,,,,,,,,009,001,2023-11-19_15h28.48.970,ETproject_Chi_2023.1.1,2023.1.1,59.93723373932769,
47,Month,十一月 ,七月,,Hori,late,left,image/Chi_late.png,"[-0.4, 0]","[0.4, 0]",4,incongruent,,,,,,,,,,,,,,,,,,,,,,,,,,,,,,0,16,16,37,,,,,,,,,,,,,,,,,,,,,,,,,,,,,,,,,,,,699.5216546999873,1.0127414999878965,700.5307511999854,700.6139946000185,701.4139268000145,701.5140059000114,701.5140059000114,701.5140059000114,left,1,1.7133199999807402,,,,,,,,,,,,,,,,,,,,,,,,,,,,,,,,,,,,,009,001,2023-11-19_15h28.48.970,ETproject_Chi_2023.1.1,2023.1.1,59.93723373932769,
118,Week,星期一,星期三 ,,Vert,late,down,image/Chi_late.png,"[0, 0.4]","[0, -0.4]",2,congruent,,,,,,,,,,,,,,,,,,,,,,,,,,,,,,0,17,17,43,,,,,,,,,,,,,,,,,,,,,,,,,,,,,,,,,,,,703.257954300032,1.009410900005605,704.2627429999993,704.3461577999988,705.1457731000264,705.245820400014,705.245820400014,705.245820400014,down,1,1.0060006999992765,,,,,,,,,,,,,,,,,,,,,,,,,,,,,,,,,,,,,009,001,2023-11-19_15h28.48.970,ETproject_Chi_2023.1.1,2023.1.1,59.93723373932769,
69,Month,十一月 ,九月 ,,Vert,early,down,image/Chi_early.png,"[0, 0.4]","[0, -0.4]",2,incongruent,,,,,,,,,,,,,,,,,,,,,,,,,,,,,,0,18,18,32,,,,,,,,,,,,,,,,,,,,,,,,,,,,,,,,,,,,706.2858537000138,0.9991026000352576,707.295122999989,707.3785543999984,708.1782088000327,708.2781977999839,708.2781977999839,708.2781977999839,up,0,1.164885000034701,,,,,,,,,,,,,,,,,,,,,,,,,,,,,,,,,,,,,009,001,2023-11-19_15h28.48.970,ETproject_Chi_2023.1.1,2023.1.1,59.93723373932769,
64,Month,四月,一月,,Vert,late,up,image/Chi_late.png,"[0, 0.4]","[0, -0.4]",3,incongruent,,,,,,,,,,,,,,,,,,,,,,,,,,,,,,0,19,19,24,,,,,,,,,,,,,,,,,,,,,,,,,,,,,,,,,,,,710.4684123999905,1.0157677000388503,711.4770215000026,711.5606077000266,712.3602745999815,712.4600221000146,712.4600221000146,712.4600221000146,up,1,0.7510564999538474,,,,,,,,,,,,,,,,,,,,,,,,,,,,,,,,,,,,,009,001,2023-11-19_15h28.48.970,ETproject_Chi_2023.1.1,2023.1.1,59.93723373932769,
9,Month,九月 ,十月 ,,Hori,early,left,image/Chi_early.png,"[-0.4, 0]","[0.4, 0]",1,congruent,,,,,,,,,,,,,,,,,,,,,,,,,,,,,,0,20,20,47,,,,,,,,,,,,,,,,,,,,,,,,,,,,,,,,,,,,713.2552312000189,1.0118532999767922,714.2595160999917,714.3429721000139,715.1426117999945,715.2425221999874,715.2425221999874,715.2425221999874,left,1,2.0179662000155076,,,,,,,,,,,,,,,,,,,,,,,,,,,,,,,,,,,,,009,001,2023-11-19_15h28.48.970,ETproject_Chi_2023.1.1,2023.1.1,59.93723373932769,
107,Week,星期四,星期五,,Hori,late,right,image/Chi_late.png,"[-0.4, 0]","[0.4, 0]",1,congruent,,,,,,,,,,,,,,,,,,,,,,,,,,,,,,0,21,21,19,,,,,,,,,,,,,,,,,,,,,,,,,,,,,,,,,,,,717.302987699979,1.0115864999825135,718.3083546999842,718.3915091999806,719.1911438999814,719.2911641999963,719.2911641999963,719.2911641999963,right,1,0.8804663000046276,,,,,,,,,,,,,,,,,,,,,,,,,,,,,,,,,,,,,009,001,2023-11-19_15h28.48.970,ETproject_Chi_2023.1.1,2023.1.1,59.93723373932769,
122,Week,星期五,星期日,,Vert,late,down,image/Chi_late.png,"[0, 0.4]","[0, -0.4]",2,congruent,,,,,,,,,,,,,,,,,,,,,,,,,,,,,,0,22,22,40,,,,,,,,,,,,,,,,,,,,,,,,,,,,,,,,,,,,720.1988902000012,1.0134665999794379,721.2072458000039,721.2904495000257,722.0903226999799,722.1902751000016,722.1902751000016,722.1902751000016,down,1,0.8205258999951184,,,,,,,,,,,,,,,,,,,,,,,,,,,,,,,,,,,,,009,001,2023-11-19_15h28.48.970,ETproject_Chi_2023.1.1,2023.1.1,59.93723373932769,
38,Month,五月,六月,,Vert,late,down,image/Chi_late.png,"[0, 0.4]","[0, -0.4]",1,congruent,,,,,,,,,,,,,,,,,,,,,,,,,,,,,,0,23,23,20,,,,,,,,,,,,,,,,,,,,,,,,,,,,,,,,,,,,723.0480807999847,1.0120538999908604,724.056230599992,724.1396214999841,724.9394305000314,725.039552000002,725.039552000002,725.039552000002,down,1,0.7553106999839656,,,,,,,,,,,,,,,,,,,,,,,,,,,,,,,,,,,,,009,001,2023-11-19_15h28.48.970,ETproject_Chi_2023.1.1,2023.1.1,59.93723373932769,
57,Month,五月,一月,,Vert,late,up,image/Chi_late.png,"[0, 0.4]","[0, -0.4]",4,incongruent,,,,,,,,,,,,,,,,,,,,,,,,,,,,,,0,24,24,25,,,,,,,,,,,,,,,,,,,,,,,,,,,,,,,,,,,,725.8289754000143,1.011847999994643,726.8387304000207,726.9221261999919,727.7217068999889,727.821634699998,727.821634699998,727.821634699998,up,1,1.0063790999702178,,,,,,,,,,,,,,,,,,,,,,,,,,,,,,,,,,,,,009,001,2023-11-19_15h28.48.970,ETproject_Chi_2023.1.1,2023.1.1,59.93723373932769,
36,Month,八月,四月,,Hori,early,right,image/Chi_early.png,"[-0.4, 0]","[0.4, 0]",4,incongruent,,,,,,,,,,,,,,,,,,,,,,,,,,,,,,0,25,25,27,,,,,,,,,,,,,,,,,,,,,,,,,,,,,,,,,,,,728.8646771999775,1.0119698999915272,729.8710681999801,729.9543982000323,730.7540249000303,730.8540448999847,730.8540448999847,730.8540448999847,right,1,0.7975019000004977,,,,,,,,,,,,,,,,,,,,,,,,,,,,,,,,,,,,,009,001,2023-11-19_15h28.48.970,ETproject_Chi_2023.1.1,2023.1.1,59.93723373932769,
42,Month,九月 ,六月,,Hori,early,right,image/Chi_early.png,"[-0.4, 0]","[0.4, 0]",3,incongruent,,,,,,,,,,,,,,,,,,,,,,,,,,,,,,0,26,26,4,,,,,,,,,,,,,,,,,,,,,,,,,,,,,,,,,,,,731.679432999983,1.011232100019697,732.6866461000172,732.7700804999913,733.5699406000203,733.670017299999,733.670017299999,733.670017299999,left,0,1.205817100009881,,,,,,,,,,,,,,,,,,,,,,,,,,,,,,,,,,,,,009,001,2023-11-19_15h28.48.970,ETproject_Chi_2023.1.1,2023.1.1,59.93723373932769,
52,Month,十月 ,七月,,Hori,late,left,image/Chi_late.png,"[-0.4, 0]","[0.4, 0]",3,incongruent,,,,,,,,,,,,,,,,,,,,,,,,,,,,,,0,27,27,41,,,,,,,,,,,,,,,,,,,,,,,,,,,,,,,,,,,,734.9192391000106,1.0111433999845758,735.9191167000099,736.0025673999917,736.8019638999831,736.9021092000185,736.9021092000185,736.9021092000185,left,1,0.661649200017564,,,,,,,,,,,,,,,,,,,,,,,,,,,,,,,,,,,,,009,001,2023-11-19_15h28.48.970,ETproject_Chi_2023.1.1,2023.1.1,59.93723373932769,
43,Month,五月,三月,,Hori,early,right,image/Chi_early.png,"[-0.4, 0]","[0.4, 0]",2,incongruent,,,,,,,,,,,,,,,,,,,,,,,,,,,,,,0,28,28,16,,,,,,,,,,,,,,,,,,,,,,,,,,,,,,,,,,,,737.5934052999946,1.0144282999681309,738.6013940999983,738.6847295000334,739.4846407999867,739.5845457999967,739.5845457999967,739.5845457999967,right,1,0.73908070003381,,,,,,,,,,,,,,,,,,,,,,,,,,,,,,,,,,,,,009,001,2023-11-19_15h28.48.970,ETproject_Chi_2023.1.1,2023.1.1,59.93723373932769,
79,Month,十一月 ,九月 ,,Vert,late,up,image/Chi_late.png,"[0, 0.4]","[0, -0.4]",2,incongruent,,,,,,,,,,,,,,,,,,,,,,,,,,,,,,0,29,29,0,,,,,,,,,,,,,,,,,,,,,,,,,,,,,,,,,,,,741.3572289000149,0.999603100004606,742.3668029999826,742.4502460000222,743.2499556000112,743.3502182000084,743.3502182000084,743.3502182000084,up,1,1.3491240000003017,,,,,,,,,,,,,,,,,,,,,,,,,,,,,,,,,,,,,009,001,2023-11-19_15h28.48.970,ETproject_Chi_2023.1.1,2023.1.1,59.93723373932769,
128,Week,星期日,星期四,,Hori,early,right,image/Chi_early.png,"[-0.4, 0]","[0.4, 0]",3,incongruent,,,,,,,,,,,,,,,,,,,,,,,,,,,,,,0,30,30,35,,,,,,,,,,,,,,,,,,,,,,,,,,,,,,,,,,,,744.7325212000287,1.011074899986852,745.7326713000075,745.8157190000056,746.615546200017,746.7155384999933,746.7155384999933,746.7155384999933,right,1,0.7601667999988422,,,,,,,,,,,,,,,,,,,,,,,,,,,,,,,,,,,,,009,001,2023-11-19_15h28.48.970,ETproject_Chi_2023.1.1,2023.1.1,59.93723373932769,
11,Month,一月,三月,,Hori,late,right,image/Chi_late.png,"[-0.4, 0]","[0.4, 0]",2,congruent,,,,,,,,,,,,,,,,,,,,,,,,,,,,,,0,31,31,5,,,,,,,,,,,,,,,,,,,,,,,,,,,,,,,,,,,,747.510225999984,1.0129365000175312,748.5147357999813,748.5981117000338,749.3978784999927,749.4978926000185,749.4978926000185,749.4978926000185,right,1,1.3536779999849387,,,,,,,,,,,,,,,,,,,,,,,,,,,,,,,,,,,,,009,001,2023-11-19_15h28.48.970,ETproject_Chi_2023.1.1,2023.1.1,59.93723373932769,
47,Month,五月,二月,,Hori,late,left,image/Chi_late.png,"[-0.4, 0]","[0.4, 0]",3,incongruent,,,,,,,,,,,,,,,,,,,,,,,,,,,,,,0,32,32,10,,,,,,,,,,,,,,,,,,,,,,,,,,,,,,,,,,,,750.8900559000322,1.011042800033465,751.8971802000306,751.9804915999994,752.7801590000163,752.8800514999893,752.8800514999893,752.8800514999893,left,1,1.2754392999922857,,,,,,,,,,,,,,,,,,,,,,,,,,,,,,,,,,,,,009,001,2023-11-19_15h28.48.970,ETproject_Chi_2023.1.1,2023.1.1,59.93723373932769,
136,Week,星期六,星期五,,Hori,late,left,image/Chi_late.png,"[-0.4, 0]","[0.4, 0]",1,incongruent,,,,,,,,,,,,,,,,,,,,,,,,,,,,,,0,33,33,13,,,,,,,,,,,,,,,,,,,,,,,,,,,,,,,,,,,,754.1874553000089,1.0133101000101306,755.1959897000343,755.2795080000069,756.0791643999983,756.1790476000169,756.1790476000169,756.1790476000169,left,1,1.1205634999787435,,,,,,,,,,,,,,,,,,,,,,,,,,,,,,,,,,,,,009,001,2023-11-19_15h28.48.970,ETproject_Chi_2023.1.1,2023.1.1,59.93723373932769,
47,Month,九月 ,七月,,Hori,early,right,image/Chi_early.png,"[-0.4, 0]","[0.4, 0]",2,incongruent,,,,,,,,,,,,,,,,,,,,,,,,,,,,,,0,34,34,23,,,,,,,,,,,,,,,,,,,,,,,,,,,,,,,,,,,,757.3405505000264,1.0113021999713965,758.3449592000106,758.42825300002,759.2280194000341,759.3281738000223,759.3281738000223,759.3281738000223,right,1,0.7552905000047758,,,,,,,,,,,,,,,,,,,,,,,,,,,,,,,,,,,,,009,001,2023-11-19_15h28.48.970,ETproject_Chi_2023.1.1,2023.1.1,59.93723373932769,
32,Month,五月,八月,,Vert,late,down,image/Chi_late.png,"[0, 0.4]","[0, -0.4]",3,congruent,,,,,,,,,,,,,,,,,,,,,,,,,,,,,,0,35,35,9,,,,,,,,,,,,,,,,,,,,,,,,,,,,,,,,,,,,760.1265024000313,1.011839399987366,761.1273654000252,761.2106964000268,762.0103854000336,762.1103316000081,762.1103316000081,762.1103316000081,down,1,1.9009849000140093,,,,,,,,,,,,,,,,,,,,,,,,,,,,,,,,,,,,,009,001,2023-11-19_15h28.48.970,ETproject_Chi_2023.1.1,2023.1.1,59.93723373932769,
30,Month,三月,六月,,Vert,late,down,image/Chi_late.png,"[0, 0.4]","[0, -0.4]",3,congruent,,,,,,,,,,,,,,,,,,,,,,,,,,,,,,0,36,36,14,,,,,,,,,,,,,,,,,,,,,,,,,,,,,,,,,,,,764.0514530999935,1.0107844000449404,765.0593722999911,765.1427488999907,765.9423781000078,766.0424923999817,766.0424923999817,766.0424923999817,down,1,1.0016098000342026,,,,,,,,,,,,,,,,,,,,,,,,,,,,,,,,,,,,,009,001,2023-11-19_15h28.48.970,ETproject_Chi_2023.1.1,2023.1.1,59.93723373932769,
52,Month,八月,四月,,Vert,early,down,image/Chi_early.png,"[0, 0.4]","[0, -0.4]",4,incongruent,,,,,,,,,,,,,,,,,,,,,,,,,,,,,,0,37,37,31,,,,,,,,,,,,,,,,,,,,,,,,,,,,,,,,,,,,767.0876210000133,1.0123869000235572,768.091927899979,768.1750468999962,768.9748013000353,769.0748026000219,769.0748026000219,769.0748026000219,down,1,1.1605389000033028,,,,,,,,,,,,,,,,,,,,,,,,,,,,,,,,,,,,,009,001,2023-11-19_15h28.48.970,ETproject_Chi_2023.1.1,2023.1.1,59.93723373932769,
143,Week,星期日,星期五,,Vert,early,down,image/Chi_early.png,"[0, 0.4]","[0, -0.4]",2,incongruent,,,,,,,,,,,,,,,,,,,,,,,,,,,,,,0,38,38,22,,,,,,,,,,,,,,,,,,,,,,,,,,,,,,,,,,,,770.2655704999925,1.0123695000074804,771.2740531000309,771.3573329999927,772.1570178000256,772.2571597999777,772.2571597999777,772.2571597999777,down,1,1.5379946999601088,,,,,,,,,,,,,,,,,,,,,,,,,,,,,,,,,,,,,009,001,2023-11-19_15h28.48.970,ETproject_Chi_2023.1.1,2023.1.1,59.93723373932769,
61,Month,七月,六月,,Hori,late,left,image/Chi_late.png,"[-0.4, 0]","[0.4, 0]",1,incongruent,,,,,,,,,,,,,,,,,,,,,,,,,,,,,,0,39,39,17,,,,,,,,,,,,,,,,,,,,,,,,,,,,,,,,,,,,773.8328659000108,1.013373399968259,774.8397759000072,774.9230339000351,775.7226413000026,775.8226112999837,775.8226112999837,775.8226112999837,left,1,1.6209173999959603,,,,,,,,,,,,,,,,,,,,,,,,,,,,,,,,,,,,,009,001,2023-11-19_15h28.48.970,ETproject_Chi_2023.1.1,2023.1.1,59.93723373932769,
106,Week,星期三 ,星期五,,Hori,late,right,image/Chi_late.png,"[-0.4, 0]","[0.4, 0]",2,congruent,,,,,,,,,,,,,,,,,,,,,,,,,,,,,,0,40,40,33,,,,,,,,,,,,,,,,,,,,,,,,,,,,,,,,,,,,777.4765193000203,0.9991934000281617,778.4884461000329,778.5718446000246,779.3713439999847,779.4714444000274,779.4714444000274,779.4714444000274,right,1,1.0358086999622174,,,,,,,,,,,,,,,,,,,,,,,,,,,,,,,,,,,,,009,001,2023-11-19_15h28.48.970,ETproject_Chi_2023.1.1,2023.1.1,59.93723373932769,
133,Week,星期五,星期二,,Hori,late,left,image/Chi_late.png,"[-0.4, 0]","[0.4, 0]",3,incongruent,,,,,,,,,,,,,,,,,,,,,,,,,,,,,,0,41,41,49,,,,,,,,,,,,,,,,,,,,,,,,,,,,,,,,,,,,780.5437057000236,1.014399100036826,781.5542165000224,781.6373080000049,782.4370370000252,782.537054800021,782.537054800021,782.537054800021,left,1,0.8181534999748692,,,,,,,,,,,,,,,,,,,,,,,,,,,,,,,,,,,,,009,001,2023-11-19_15h28.48.970,ETproject_Chi_2023.1.1,2023.1.1,59.93723373932769,
8,Month,八月,十二月,,Hori,early,left,image/Chi_early.png,"[-0.4, 0]","[0.4, 0]",4,congruent,,,,,,,,,,,,,,,,,,,,,,,,,,,,,,0,42,42,7,,,,,,,,,,,,,,,,,,,,,,,,,,,,,,,,,,,,783.3999987000134,1.0117184999980964,784.403069299995,784.4863580000238,785.2861116999993,785.3860819999827,785.3860819999827,785.3860819999827,left,1,0.9773460000287741,,,,,,,,,,,,,,,,,,,,,,,,,,,,,,,,,,,,,009,001,2023-11-19_15h28.48.970,ETproject_Chi_2023.1.1,2023.1.1,59.93723373932769,
3,Month,三月,五月,,Hori,early,left,image/Chi_early.png,"[-0.4, 0]","[0.4, 0]",2,congruent,,,,,,,,,,,,,,,,,,,,,,,,,,,,,,0,43,43,29,,,,,,,,,,,,,,,,,,,,,,,,,,,,,,,,,,,,786.39424470003,1.0115971000050195,787.4020068999962,787.4854947000276,788.2852419000119,788.3851396000246,788.3851396000246,788.3851396000246,left,1,0.713759999955073,,,,,,,,,,,,,,,,,,,,,,,,,,,,,,,,,,,,,009,001,2023-11-19_15h28.48.970,ETproject_Chi_2023.1.1,2023.1.1,59.93723373932769,
15,Month,七月,十一月 ,,Hori,late,right,image/Chi_late.png,"[-0.4, 0]","[0.4, 0]",4,congruent,,,,,,,,,,,,,,,,,,,,,,,,,,,,,,0,44,44,15,,,,,,,,,,,,,,,,,,,,,,,,,,,,,,,,,,,,789.1284611999872,1.0127552999765612,790.1344402999966,790.2180226999917,791.0175675000064,791.117595400021,791.117595400021,791.117595400021,right,1,0.6136758999782614,,,,,,,,,,,,,,,,,,,,,,,,,,,,,,,,,,,,,009,001,2023-11-19_15h28.48.970,ETproject_Chi_2023.1.1,2023.1.1,59.93723373932769,
12,Month,二月,四月,,Hori,late,right,image/Chi_late.png,"[-0.4, 0]","[0.4, 0]",2,congruent,,,,,,,,,,,,,,,,,,,,,,,,,,,,,,0,45,45,21,,,,,,,,,,,,,,,,,,,,,,,,,,,,,,,,,,,,791.7550609000027,1.0153128000092693,792.7669054000289,792.8504707000102,793.6498692000168,793.7500366999884,793.7500366999884,793.7500366999884,right,1,0.6771665000123903,,,,,,,,,,,,,,,,,,,,,,,,,,,,,,,,,,,,,009,001,2023-11-19_15h28.48.970,ETproject_Chi_2023.1.1,2023.1.1,59.93723373932769,
43,Month,七月,三月,,Hori,late,left,image/Chi_late.png,"[-0.4, 0]","[0.4, 0]",4,incongruent,,,,,,,,,,,,,,,,,,,,,,,,,,,,,,0,46,46,39,,,,,,,,,,,,,,,,,,,,,,,,,,,,,,,,,,,,794.4591921999818,1.0108989999862388,795.4659843000118,795.5492361999932,796.3492647000239,796.449238799978,796.449238799978,796.449238799978,left,1,0.76956510002492,,,,,,,,,,,,,,,,,,,,,,,,,,,,,,,,,,,,,009,001,2023-11-19_15h28.48.970,ETproject_Chi_2023.1.1,2023.1.1,59.93723373932769,
46,Month,三月,二月,,Hori,early,right,image/Chi_early.png,"[-0.4, 0]","[0.4, 0]",1,incongruent,,,,,,,,,,,,,,,,,,,,,,,,,,,,,,0,47,47,36,,,,,,,,,,,,,,,,,,,,,,,,,,,,,,,,,,,,797.2606001999811,1.0132063000346534,798.2650716999779,798.3484889999963,799.148351699987,799.2482808000059,799.2482808000059,799.2482808000059,right,1,0.7635659999796189,,,,,,,,,,,,,,,,,,,,,,,,,,,,,,,,,,,,,009,001,2023-11-19_15h28.48.970,ETproject_Chi_2023.1.1,2023.1.1,59.93723373932769,
50,Month,七月,六月,,Hori,early,right,image/Chi_early.png,"[-0.4, 0]","[0.4, 0]",1,incongruent,,,,,,,,,,,,,,,,,,,,,,,,,,,,,,0,48,48,28,,,,,,,,,,,,,,,,,,,,,,,,,,,,,,,,,,,,800.0384721999872,1.0130140000255778,801.0476359000313,801.1308775999933,801.9306122999988,802.0307706000167,802.0307706000167,802.0307706000167,right,1,0.6926290999981575,,,,,,,,,,,,,,,,,,,,,,,,,,,,,,,,,,,,,009,001,2023-11-19_15h28.48.970,ETproject_Chi_2023.1.1,2023.1.1,59.93723373932769,
63,Month,十一月 ,七月,,Vert,late,up,image/Chi_late.png,"[0, 0.4]","[0, -0.4]",4,incongruent,,,,,,,,,,,,,,,,,,,,,,,,,,,,,,0,49,49,3,,,,,,,,,,,,,,,,,,,,,,,,,,,,,,,,,,,,802.75480960001,1.014731600007508,803.7633455999894,803.846653399989,804.6464274000027,804.7462957000243,804.7462957000243,804.7462957000243,up,1,1.0658650000113994,,,,,,,,,,,,,,,,,,,,,,,,,,,,,,,,,,,,,009,001,2023-11-19_15h28.48.970,ETproject_Chi_2023.1.1,2023.1.1,59.93723373932769,
,,,,,,,,,,,,,,,,,,,,,,,,,,,,,,,,,,,,,,,,,,,,,,,,,,,,,,,,,,,,,,,,,,,,,,,,,,,,,,,,,,,,,,,,,,,,,,,,,,,,,,,,,,,,,,,,,,,,,,805.8299286999973,805.8299286999973,space,1.8538462999858893,,,,,,,009,001,2023-11-19_15h28.48.970,ETproject_Chi_2023.1.1,2023.1.1,59.93723373932769,
,,,,,,,,,,,,,Spring 2.jpg,这是冬天吗？,否,Right,Break_material/Image/Spring 2.jpg,,,,,,,,,,,,,,,,,,,,,,,,,,,,,0,0,0,1,,,,,,,,,,,,,,,,,,,,,,,,,,,,,,,,,,,,,,,,,,,,,,,807.8055022000335,811.6973890999798,811.8106675000163,813.71038579999,813.71038579999,813.71038579999,813.71038579999,right,0,0.7883186000399292,,,,,,,,,,,,,,,,,,,,,,,009,001,2023-11-19_15h28.48.970,ETproject_Chi_2023.1.1,2023.1.1,59.93723373932769,
,,,,,,,,,,,,,Spring 1.jpg,这是春天吗？,是,Left,Break_material/Image/Spring 1.jpg,,,,,,,,,,,,,,,,,,,,,,,,,,,,,0,1,1,0,,,,,,,,,,,,,,,,,,,,,,,,,,,,,,,,,,,,,,,,,,,,,,,814.581832099997,818.5124161000131,818.5918421000242,820.5243810000247,820.5243810000247,820.5243810000247,820.5243810000247,left,0,0.3587989999796264,,,,,,,,,,,,,,,,,,,,,,,009,001,2023-11-19_15h28.48.970,ETproject_Chi_2023.1.1,2023.1.1,59.93723373932769,
,,,,,,,,,,,,,Spring 5.jpg,这是冬天吗？,否,Right,Break_material/Image/Spring 5.jpg,,,,,,,,,,,,,,,,,,,,,,,,,,,,,0,2,2,4,,,,,,,,,,,,,,,,,,,,,,,,,,,,,,,,,,,,,,,,,,,,,,,821.3439727000077,824.8948200999876,825.3397485000314,826.9059371000039,826.9059371000039,826.9059371000039,826.9059371000039,right,0,0.2903379999916069,,,,,,,,,,,,,,,,,,,,,,,009,001,2023-11-19_15h28.48.970,ETproject_Chi_2023.1.1,2023.1.1,59.93723373932769,
,,,,,,,,,,,,,Spring 3.jpg,这是夏天吗？,否,Right,Break_material/Image/Spring 3.jpg,,,,,,,,,,,,,,,,,,,,,,,,,,,,,0,3,3,2,,,,,,,,,,,,,,,,,,,,,,,,,,,,,,,,,,,,,,,,,,,,,,,827.458769000019,831.2084089000127,831.4542374000303,833.2203699999955,833.2203699999955,833.2203699999955,833.2203699999955,left,0,0.3269914999837056,,,,,,,,,,,,,,,,,,,,,,,009,001,2023-11-19_15h28.48.970,ETproject_Chi_2023.1.1,2023.1.1,59.93723373932769,
,,,,,,,,,,,,,Spring 4.jpg,这是秋天吗？,否,Right,Break_material/Image/Spring 4.jpg,,,,,,,,,,,,,,,,,,,,,,,,,,,,,0,4,4,3,,,,,,,,,,,,,,,,,,,,,,,,,,,,,,,,,,,,,,,,,,,,,,,833.7754446000326,837.5568516000058,837.7855099000153,839.5683121000184,839.5683121000184,839.5683121000184,839.5683121000184,right,0,0.28301110002212226,,,,,,,,,,,,,,,,,,,,,,,009,001,2023-11-19_15h28.48.970,ETproject_Chi_2023.1.1,2023.1.1,59.93723373932769,
,,,,,,,,,,,,,,,,,,,,,,,,,,,,,,,,,,,,,,,,,,,,,,,,,,,,,,,,,,,,,,,,,,,,,,,,,,,,,,,,,,,,,,,,,,,,,,,,,,,,,,,,,,,,,,,,,,,,,,,,,,839.8682956999983,839.8682956999983,space,1.3038242000038736,,,009,001,2023-11-19_15h28.48.970,ETproject_Chi_2023.1.1,2023.1.1,59.93723373932769,
3,Month,三月,六月,,Hori,early,left,image/Chi_early.png,"[-0.4, 0]","[0.4, 0]",3,congruent,,,,,,,,,,,,,,,,,,,,,,,,,,,,,,,,,,,,,,0,0,0,0,,,,,,,,,,,,,,,,,,,,,,,,,,,,841.254842400027,0.9995494000031613,842.2676567999879,842.2839776999899,843.0838360000052,843.2003288000124,843.2003288000124,843.2003288000124,left,1,0.5952410000027157,,,,,,,,,,,,,,,,,,,,,,,,,,,,,,,,,,,,,009,001,2023-11-19_15h28.48.970,ETproject_Chi_2023.1.1,2023.1.1,59.93723373932769,
1,Month,一月,五月,,Hori,early,left,image/Chi_early.png,"[-0.4, 0]","[0.4, 0]",4,congruent,,,,,,,,,,,,,,,,,,,,,,,,,,,,,,,,,,,,,,0,1,1,34,,,,,,,,,,,,,,,,,,,,,,,,,,,,843.8289982000133,1.015315400029067,844.8331574000185,844.9163736000191,845.7162644999917,845.8161820999812,845.8161820999812,845.8161820999812,left,1,0.5723722000257112,,,,,,,,,,,,,,,,,,,,,,,,,,,,,,,,,,,,,009,001,2023-11-19_15h28.48.970,ETproject_Chi_2023.1.1,2023.1.1,59.93723373932769,
18,Month,二月,六月,,Vert,early,up,image/Chi_early.png,"[0, 0.4]","[0, -0.4]",4,congruent,,,,,,,,,,,,,,,,,,,,,,,,,,,,,,,,,,,,,,0,2,2,25,,,,,,,,,,,,,,,,,,,,,,,,,,,,846.423578899994,1.0117188000003807,847.4324485000107,847.5157448999817,848.3152637000312,848.4152382999891,848.4152382999891,848.4152382999891,up,1,1.140219499997329,,,,,,,,,,,,,,,,,,,,,,,,,,,,,,,,,,,,,009,001,2023-11-19_15h28.48.970,ETproject_Chi_2023.1.1,2023.1.1,59.93723373932769,
29,Month,二月,五月,,Vert,late,down,image/Chi_late.png,"[0, 0.4]","[0, -0.4]",3,congruent,,,,,,,,,,,,,,,,,,,,,,,,,,,,,,,,,,,,,,0,3,3,14,,,,,,,,,,,,,,,,,,,,,,,,,,,,849.5917875000159,1.0114967000554316,850.5979199000285,850.6811561000068,851.4808999000234,851.5810897999909,851.5810897999909,851.5810897999909,down,1,0.7664057000074536,,,,,,,,,,,,,,,,,,,,,,,,,,,,,,,,,,,,,009,001,2023-11-19_15h28.48.970,ETproject_Chi_2023.1.1,2023.1.1,59.93723373932769,
112,Week,星期二,星期四,,Vert,early,up,image/Chi_early.png,"[0, 0.4]","[0, -0.4]",2,congruent,,,,,,,,,,,,,,,,,,,,,,,,,,,,,,,,,,,,,,0,4,4,41,,,,,,,,,,,,,,,,,,,,,,,,,,,,852.3758609999786,1.0108712000073865,853.3804490999901,853.46376220003,854.2634473000071,854.3633104999899,854.3633104999899,854.3633104999899,up,1,0.77671340003144,,,,,,,,,,,,,,,,,,,,,,,,,,,,,,,,,,,,,009,001,2023-11-19_15h28.48.970,ETproject_Chi_2023.1.1,2023.1.1,59.93723373932769,
56,Month,五月,二月,,Vert,early,down,image/Chi_early.png,"[0, 0.4]","[0, -0.4]",3,incongruent,,,,,,,,,,,,,,,,,,,,,,,,,,,,,,,,,,,,,,0,5,5,3,,,,,,,,,,,,,,,,,,,,,,,,,,,,855.1677797000157,0.9994422000017948,856.1792182000354,856.2626349999919,857.062631000008,857.1623925000313,857.1623925000313,857.1623925000313,down,1,0.8008187999948859,,,,,,,,,,,,,,,,,,,,,,,,,,,,,,,,,,,,,009,001,2023-11-19_15h28.48.970,ETproject_Chi_2023.1.1,2023.1.1,59.93723373932769,
49,Month,六月,五月,,Hori,early,right,image/Chi_early.png,"[-0.4, 0]","[0.4, 0]",1,incongruent,,,,,,,,,,,,,,,,,,,,,,,,,,,,,,,,,,,,,,0,6,6,20,,,,,,,,,,,,,,,,,,,,,,,,,,,,858.0013966999832,1.0142410999978893,859.0117949999985,859.0950775999809,859.8948567000334,859.9948117000167,859.9948117000167,859.9948117000167,right,1,1.4089663999620825,,,,,,,,,,,,,,,,,,,,,,,,,,,,,,,,,,,,,009,001,2023-11-19_15h28.48.970,ETproject_Chi_2023.1.1,2023.1.1,59.93723373932769,
98,Week,星期二,星期四,,Hori,early,left,image/Chi_early.png,"[-0.4, 0]","[0.4, 0]",2,congruent,,,,,,,,,,,,,,,,,,,,,,,,,,,,,,,,,,,,,,0,7,7,47,,,,,,,,,,,,,,,,,,,,,,,,,,,,861.4315936000203,1.0155141999712214,862.44395049999,862.5273405000335,863.3269963000203,863.42715459998,863.42715459998,863.42715459998,left,1,0.6800264000194147,,,,,,,,,,,,,,,,,,,,,,,,,,,,,,,,,,,,,009,001,2023-11-19_15h28.48.970,ETproject_Chi_2023.1.1,2023.1.1,59.93723373932769,
149,Week,星期六,星期四,,Vert,late,up,image/Chi_late.png,"[0, 0.4]","[0, -0.4]",2,incongruent,,,,,,,,,,,,,,,,,,,,,,,,,,,,,,,,,,,,,,0,8,8,10,,,,,,,,,,,,,,,,,,,,,,,,,,,,864.1401747000054,1.0117901000194252,865.1430437000236,865.2264163999935,866.0261057000025,866.1263119999785,866.1263119999785,866.1263119999785,up,1,1.1575249000452459,,,,,,,,,,,,,,,,,,,,,,,,,,,,,,,,,,,,,009,001,2023-11-19_15h28.48.970,ETproject_Chi_2023.1.1,2023.1.1,59.93723373932769,
114,Week,星期四,星期六,,Vert,early,up,image/Chi_early.png,"[0, 0.4]","[0, -0.4]",2,congruent,,,,,,,,,,,,,,,,,,,,,,,,,,,,,,,,,,,,,,0,9,9,1,,,,,,,,,,,,,,,,,,,,,,,,,,,,867.3188240000163,1.012666700000409,868.325360900024,868.4088026999962,869.2085894999909,869.3087296999875,869.3087296999875,869.3087296999875,up,1,1.4075600000214763,,,,,,,,,,,,,,,,,,,,,,,,,,,,,,,,,,,,,009,001,2023-11-19_15h28.48.970,ETproject_Chi_2023.1.1,2023.1.1,59.93723373932769,
121,Week,星期四,星期日,,Vert,late,down,image/Chi_late.png,"[0, 0.4]","[0, -0.4]",3,congruent,,,,,,,,,,,,,,,,,,,,,,,,,,,,,,,,,,,,,,0,10,10,22,,,,,,,,,,,,,,,,,,,,,,,,,,,,870.7538599999971,1.0145038000191562,871.7575747999945,871.8409339000355,872.6406541999895,872.7406716999831,872.7406716999831,872.7406716999831,down,1,0.7110185000346974,,,,,,,,,,,,,,,,,,,,,,,,,,,,,,,,,,,,,009,001,2023-11-19_15h28.48.970,ETproject_Chi_2023.1.1,2023.1.1,59.93723373932769,
100,Week,星期四,星期六,,Hori,early,left,image/Chi_early.png,"[-0.4, 0]","[0.4, 0]",2,congruent,,,,,,,,,,,,,,,,,,,,,,,,,,,,,,,,,,,,,,0,11,11,11,,,,,,,,,,,,,,,,,,,,,,,,,,,,874.4801640000078,1.0146527999895625,875.4898611999815,875.5731837999774,876.3727130999905,876.4728212000336,876.4728212000336,876.4728212000336,left,1,0.7307397999684326,,,,,,,,,,,,,,,,,,,,,,,,,,,,,,,,,,,,,009,001,2023-11-19_15h28.48.970,ETproject_Chi_2023.1.1,2023.1.1,59.93723373932769,
138,Week,星期一,星期日,,Hori,late,left,image/Chi_late.png,"[-0.4, 0]","[0.4, 0]",1,incongruent,,,,,,,,,,,,,,,,,,,,,,,,,,,,,,,,,,,,,,0,12,12,18,,,,,,,,,,,,,,,,,,,,,,,,,,,,877.2307849000208,1.0158210000372492,878.238953299995,878.3223484000191,879.1217702000285,879.2219317000126,879.2219317000126,879.2219317000126,right,0,1.029171200003475,,,,,,,,,,,,,,,,,,,,,,,,,,,,,,,,,,,,,009,001,2023-11-19_15h28.48.970,ETproject_Chi_2023.1.1,2023.1.1,59.93723373932769,
74,Month,九月 ,八月,,Vert,early,down,image/Chi_early.png,"[0, 0.4]","[0, -0.4]",1,incongruent,,,,,,,,,,,,,,,,,,,,,,,,,,,,,,,,,,,,,,0,13,13,38,,,,,,,,,,,,,,,,,,,,,,,,,,,,880.2831559000188,1.0148576999781653,881.2878212999785,881.3711922999937,882.1710053000133,882.2707469000015,882.2707469000015,882.2707469000015,down,1,2.620985399989877,,,,,,,,,,,,,,,,,,,,,,,,,,,,,,,,,,,,,009,001,2023-11-19_15h28.48.970,ETproject_Chi_2023.1.1,2023.1.1,59.93723373932769,
142,Week,星期六,星期四,,Vert,early,down,image/Chi_early.png,"[0, 0.4]","[0, -0.4]",2,incongruent,,,,,,,,,,,,,,,,,,,,,,,,,,,,,,,,,,,,,,0,14,14,15,,,,,,,,,,,,,,,,,,,,,,,,,,,,884.9257646999904,1.0134762999950908,885.936268599995,886.0197330000228,886.8193266000017,886.9193076000083,886.9193076000083,886.9193076000083,left,0,1.9405089999781922,,,,,,,,,,,,,,,,,,,,,,,,,,,,,,,,,,,,,009,001,2023-11-19_15h28.48.970,ETproject_Chi_2023.1.1,2023.1.1,59.93723373932769,
60,Month,六月,五月,,Hori,late,left,image/Chi_late.png,"[-0.4, 0]","[0.4, 0]",1,incongruent,,,,,,,,,,,,,,,,,,,,,,,,,,,,,,,,,,,,,,0,15,15,43,,,,,,,,,,,,,,,,,,,,,,,,,,,,888.8976653999998,1.0110524999909103,889.9016886000172,889.9849679000326,890.7846724999836,890.8846651000204,890.8846651000204,890.8846651000204,left,1,1.8868931999895722,,,,,,,,,,,,,,,,,,,,,,,,,,,,,,,,,,,,,009,001,2023-11-19_15h28.48.970,ETproject_Chi_2023.1.1,2023.1.1,59.93723373932769,
125,Week,星期四,星期一,,Hori,early,right,image/Chi_early.png,"[-0.4, 0]","[0.4, 0]",3,incongruent,,,,,,,,,,,,,,,,,,,,,,,,,,,,,,,,,,,,,,0,16,16,31,,,,,,,,,,,,,,,,,,,,,,,,,,,,892.8103465000167,1.013347000000067,893.8169339000015,893.9002983000246,894.7001158000203,894.8000409000088,894.8000409000088,894.8000409000088,right,1,0.7241500000236556,,,,,,,,,,,,,,,,,,,,,,,,,,,,,,,,,,,,,009,001,2023-11-19_15h28.48.970,ETproject_Chi_2023.1.1,2023.1.1,59.93723373932769,
28,Month,一月,四月,,Vert,late,down,image/Chi_late.png,"[0, 0.4]","[0, -0.4]",3,congruent,,,,,,,,,,,,,,,,,,,,,,,,,,,,,,,,,,,,,,0,17,17,9,,,,,,,,,,,,,,,,,,,,,,,,,,,,895.5642148000188,1.0105365000199527,896.5662015000125,896.649419000023,897.449315899983,897.5491488000262,897.5491488000262,897.5491488000262,down,1,1.7980787999695167,,,,,,,,,,,,,,,,,,,,,,,,,,,,,,,,,,,,,009,001,2023-11-19_15h28.48.970,ETproject_Chi_2023.1.1,2023.1.1,59.93723373932769,
35,Month,五月,七月,,Vert,late,down,image/Chi_late.png,"[0, 0.4]","[0, -0.4]",2,congruent,,,,,,,,,,,,,,,,,,,,,,,,,,,,,,,,,,,,,,0,18,18,4,,,,,,,,,,,,,,,,,,,,,,,,,,,,899.3707121000043,1.0140743000083603,900.3814205999952,900.4648230000166,901.2645413000137,901.3646713999915,901.3646713999915,901.3646713999915,down,1,0.9117144999909215,,,,,,,,,,,,,,,,,,,,,,,,,,,,,,,,,,,,,009,001,2023-11-19_15h28.48.970,ETproject_Chi_2023.1.1,2023.1.1,59.93723373932769,
41,Month,八月,九月 ,,Vert,late,down,image/Chi_late.png,"[0, 0.4]","[0, -0.4]",1,congruent,,,,,,,,,,,,,,,,,,,,,,,,,,,,,,,,,,,,,,0,19,19,23,,,,,,,,,,,,,,,,,,,,,,,,,,,,902.3049712000065,1.0124244999606162,903.3140050999937,903.3971958000329,904.1969913999783,904.2968649999821,904.2968649999821,904.2968649999821,down,1,0.9463438999955542,,,,,,,,,,,,,,,,,,,,,,,,,,,,,,,,,,,,,009,001,2023-11-19_15h28.48.970,ETproject_Chi_2023.1.1,2023.1.1,59.93723373932769,
132,Week,星期三 ,星期一,,Hori,late,left,image/Chi_late.png,"[-0.4, 0]","[0.4, 0]",2,incongruent,,,,,,,,,,,,,,,,,,,,,,,,,,,,,,,,,,,,,,0,20,20,2,,,,,,,,,,,,,,,,,,,,,,,,,,,,905.271636200021,1.0111889999825507,906.2794961000327,906.3630261999788,907.1627027000068,907.2625315000187,907.2625315000187,907.2625315000187,left,1,0.6920941999997012,,,,,,,,,,,,,,,,,,,,,,,,,,,,,,,,,,,,,009,001,2023-11-19_15h28.48.970,ETproject_Chi_2023.1.1,2023.1.1,59.93723373932769,
74,Month,六月,四月,,Vert,late,up,image/Chi_late.png,"[0, 0.4]","[0, -0.4]",2,incongruent,,,,,,,,,,,,,,,,,,,,,,,,,,,,,,,,,,,,,,0,21,21,27,,,,,,,,,,,,,,,,,,,,,,,,,,,,907.9854016000172,1.0127225000178441,908.995369900018,909.0788360000006,909.8783891000203,909.9784028999857,909.9784028999857,909.9784028999857,up,1,0.9689216000260785,,,,,,,,,,,,,,,,,,,,,,,,,,,,,,,,,,,,,009,001,2023-11-19_15h28.48.970,ETproject_Chi_2023.1.1,2023.1.1,59.93723373932769,
73,Month,八月,七月,,Vert,early,down,image/Chi_early.png,"[0, 0.4]","[0, -0.4]",1,incongruent,,,,,,,,,,,,,,,,,,,,,,,,,,,,,,,,,,,,,,0,22,22,29,,,,,,,,,,,,,,,,,,,,,,,,,,,,910.9982451000251,1.0100619999575429,912.0109837999917,912.0777996000252,912.8772754999809,912.9775385999819,912.9775385999819,912.9775385999819,down,1,1.3457224000012502,,,,,,,,,,,,,,,,,,,,,,,,,,,,,,,,,,,,,009,001,2023-11-19_15h28.48.970,ETproject_Chi_2023.1.1,2023.1.1,59.93723373932769,
39,Month,六月,三月,,Hori,early,right,image/Chi_early.png,"[-0.4, 0]","[0.4, 0]",3,incongruent,,,,,,,,,,,,,,,,,,,,,,,,,,,,,,,,,,,,,,0,23,23,26,,,,,,,,,,,,,,,,,,,,,,,,,,,,914.3517542000045,1.0113520000013523,915.3599091999931,915.4432182000019,916.2428961999831,916.3428771999897,916.3428771999897,916.3428771999897,right,1,0.5881221999879926,,,,,,,,,,,,,,,,,,,,,,,,,,,,,,,,,,,,,009,001,2023-11-19_15h28.48.970,ETproject_Chi_2023.1.1,2023.1.1,59.93723373932769,
141,Week,星期四,星期三 ,,Vert,early,down,image/Chi_early.png,"[0, 0.4]","[0, -0.4]",1,incongruent,,,,,,,,,,,,,,,,,,,,,,,,,,,,,,,,,,,,,,0,24,24,7,,,,,,,,,,,,,,,,,,,,,,,,,,,,916.9640635999967,0.9991242000251077,917.9757182000321,918.0591133999988,918.8588142999797,918.9586918000132,918.9586918000132,918.9586918000132,down,1,0.8053711999673396,,,,,,,,,,,,,,,,,,,,,,,,,,,,,,,,,,,,,009,001,2023-11-19_15h28.48.970,ETproject_Chi_2023.1.1,2023.1.1,59.93723373932769,
132,Week,星期二,星期一,,Hori,late,left,image/Chi_late.png,"[-0.4, 0]","[0.4, 0]",1,incongruent,,,,,,,,,,,,,,,,,,,,,,,,,,,,,,,,,,,,,,0,25,25,36,,,,,,,,,,,,,,,,,,,,,,,,,,,,919.8071878000046,1.0122835999936797,920.8081606000196,920.8914196999976,921.691223700007,921.7911174999899,921.7911174999899,921.7911174999899,left,1,0.6607016999623738,,,,,,,,,,,,,,,,,,,,,,,,,,,,,,,,,,,,,009,001,2023-11-19_15h28.48.970,ETproject_Chi_2023.1.1,2023.1.1,59.93723373932769,
147,Week,星期五,星期二,,Vert,late,up,image/Chi_late.png,"[0, 0.4]","[0, -0.4]",3,incongruent,,,,,,,,,,,,,,,,,,,,,,,,,,,,,,,,,,,,,,0,26,26,21,,,,,,,,,,,,,,,,,,,,,,,,,,,,922.4832618000219,1.0116842999705113,923.4904741999926,923.5738128999947,924.373614799988,924.4737742000143,924.4737742000143,924.4737742000143,up,1,0.8737187999649905,,,,,,,,,,,,,,,,,,,,,,,,,,,,,,,,,,,,,009,001,2023-11-19_15h28.48.970,ETproject_Chi_2023.1.1,2023.1.1,59.93723373932769,
2,Month,二月,四月,,Hori,early,left,image/Chi_early.png,"[-0.4, 0]","[0.4, 0]",2,congruent,,,,,,,,,,,,,,,,,,,,,,,,,,,,,,,,,,,,,,0,27,27,5,,,,,,,,,,,,,,,,,,,,,,,,,,,,925.3881037000101,1.0131229999824427,926.3898885999806,926.4730516999844,927.2726510000066,927.3726991000003,927.3726991000003,927.3726991000003,left,1,0.6785036000073887,,,,,,,,,,,,,,,,,,,,,,,,,,,,,,,,,,,,,009,001,2023-11-19_15h28.48.970,ETproject_Chi_2023.1.1,2023.1.1,59.93723373932769,
6,Month,六月,七月,,Hori,early,left,image/Chi_early.png,"[-0.4, 0]","[0.4, 0]",1,congruent,,,,,,,,,,,,,,,,,,,,,,,,,,,,,,,,,,,,,,0,28,28,33,,,,,,,,,,,,,,,,,,,,,,,,,,,,929.0791051000124,1.0142972000176087,930.0884411000297,930.1718661999912,930.9715448999777,931.0716768000275,931.0716768000275,931.0716768000275,left,1,0.716586800001096,,,,,,,,,,,,,,,,,,,,,,,,,,,,,,,,,,,,,009,001,2023-11-19_15h28.48.970,ETproject_Chi_2023.1.1,2023.1.1,59.93723373932769,
111,Week,星期一,星期四,,Vert,early,up,image/Chi_early.png,"[0, 0.4]","[0, -0.4]",3,congruent,,,,,,,,,,,,,,,,,,,,,,,,,,,,,,,,,,,,,,0,29,29,16,,,,,,,,,,,,,,,,,,,,,,,,,,,,931.8120985000278,1.0115018999786116,932.8208387999912,932.9041055000271,933.7038631000323,933.8040838000015,933.8040838000015,933.8040838000015,up,1,1.0877743000164628,,,,,,,,,,,,,,,,,,,,,,,,,,,,,,,,,,,,,009,001,2023-11-19_15h28.48.970,ETproject_Chi_2023.1.1,2023.1.1,59.93723373932769,
20,Month,十月 ,十二月,,Hori,late,right,image/Chi_late.png,"[-0.4, 0]","[0.4, 0]",2,congruent,,,,,,,,,,,,,,,,,,,,,,,,,,,,,,,,,,,,,,0,30,30,24,,,,,,,,,,,,,,,,,,,,,,,,,,,,934.9332652000012,1.011549599992577,935.9365532000083,936.0198054999928,936.8195368000306,936.9195037999889,936.9195037999889,936.9195037999889,right,1,0.8441594000323676,,,,,,,,,,,,,,,,,,,,,,,,,,,,,,,,,,,,,009,001,2023-11-19_15h28.48.970,ETproject_Chi_2023.1.1,2023.1.1,59.93723373932769,
3,Month,三月,七月,,Hori,early,left,image/Chi_early.png,"[-0.4, 0]","[0.4, 0]",4,congruent,,,,,,,,,,,,,,,,,,,,,,,,,,,,,,,,,,,,,,0,31,31,49,,,,,,,,,,,,,,,,,,,,,,,,,,,,937.79761280003,1.0112105999724008,938.8021702999831,938.885457700002,939.6854287000024,939.785280400014,939.785280400014,939.785280400014,left,1,0.9297547999885865,,,,,,,,,,,,,,,,,,,,,,,,,,,,,,,,,,,,,009,001,2023-11-19_15h28.48.970,ETproject_Chi_2023.1.1,2023.1.1,59.93723373932769,
135,Week,星期日,星期四,,Hori,late,left,image/Chi_late.png,"[-0.4, 0]","[0.4, 0]",3,incongruent,,,,,,,,,,,,,,,,,,,,,,,,,,,,,,,,,,,,,,0,32,32,12,,,,,,,,,,,,,,,,,,,,,,,,,,,,940.7461939000059,1.0151719000423327,941.7514131999924,941.8345361999818,942.634368100029,942.7343885999871,942.7343885999871,942.7343885999871,left,1,1.0450049000210129,,,,,,,,,,,,,,,,,,,,,,,,,,,,,,,,,,,,,009,001,2023-11-19_15h28.48.970,ETproject_Chi_2023.1.1,2023.1.1,59.93723373932769,
27,Month,五月,六月,,Vert,early,up,image/Chi_early.png,"[0, 0.4]","[0, -0.4]",1,congruent,,,,,,,,,,,,,,,,,,,,,,,,,,,,,,,,,,,,,,0,33,33,48,,,,,,,,,,,,,,,,,,,,,,,,,,,,943.8076039000298,0.9990321000223048,944.8168270000024,944.9002778999857,945.6998862000182,945.7998914000345,945.7998914000345,945.7998914000345,up,1,0.8275626000249758,,,,,,,,,,,,,,,,,,,,,,,,,,,,,,,,,,,,,009,001,2023-11-19_15h28.48.970,ETproject_Chi_2023.1.1,2023.1.1,59.93723373932769,
44,Month,八月,四月,,Hori,late,left,image/Chi_late.png,"[-0.4, 0]","[0.4, 0]",4,incongruent,,,,,,,,,,,,,,,,,,,,,,,,,,,,,,,,,,,,,,0,34,34,40,,,,,,,,,,,,,,,,,,,,,,,,,,,,946.6603630000027,1.012394100020174,947.6659017999773,947.7494464000338,948.5491427999805,948.6490871999995,948.6490871999995,948.6490871999995,left,1,0.9059457999537699,,,,,,,,,,,,,,,,,,,,,,,,,,,,,,,,,,,,,009,001,2023-11-19_15h28.48.970,ETproject_Chi_2023.1.1,2023.1.1,59.93723373932769,
15,Month,六月,九月 ,,Hori,late,right,image/Chi_late.png,"[-0.4, 0]","[0.4, 0]",3,congruent,,,,,,,,,,,,,,,,,,,,,,,,,,,,,,,,,,,,,,0,35,35,42,,,,,,,,,,,,,,,,,,,,,,,,,,,,949.5879799000104,1.013270299998112,950.5984405000345,950.6815827999962,951.4814449999831,951.5814748000121,951.5814748000121,951.5814748000121,right,1,1.3972297000000253,,,,,,,,,,,,,,,,,,,,,,,,,,,,,,,,,,,,,009,001,2023-11-19_15h28.48.970,ETproject_Chi_2023.1.1,2023.1.1,59.93723373932769,
79,Month,三月,二月,,Vert,late,up,image/Chi_late.png,"[0, 0.4]","[0, -0.4]",1,incongruent,,,,,,,,,,,,,,,,,,,,,,,,,,,,,,,,,,,,,,0,36,36,8,,,,,,,,,,,,,,,,,,,,,,,,,,,,953.005384100019,1.011132700019516,954.0137477000244,954.0973011000315,954.8968680999824,954.9969113999978,954.9969113999978,954.9969113999978,up,1,0.783019200025592,,,,,,,,,,,,,,,,,,,,,,,,,,,,,,,,,,,,,009,001,2023-11-19_15h28.48.970,ETproject_Chi_2023.1.1,2023.1.1,59.93723373932769,
