No,Category,earlier_stim,later_stim,conguency,orientation,instruction,corr_resp,Instruction_stim,early_position,late_position,distance,congruency,Image,Qustion,Response,CorrAns,Path,prac_block.thisRepN,prac_block.thisTrialN,prac_block.thisN,prac_block.thisIndex,trials.thisRepN,trials.thisTrialN,trials.thisN,trials.thisIndex,block1.thisRepN,block1.thisTrialN,block1.thisN,block1.thisIndex,break1.thisRepN,break1.thisTrialN,break1.thisN,break1.thisIndex,block2.thisRepN,block2.thisTrialN,block2.thisN,block2.thisIndex,break2.thisRepN,break2.thisTrialN,break2.thisN,break2.thisIndex,block3.thisRepN,block3.thisTrialN,block3.thisN,block3.thisIndex,break3.thisRepN,break3.thisTrialN,break3.thisN,break3.thisIndex,block4.thisRepN,block4.thisTrialN,block4.thisN,block4.thisIndex,intro_1.started,intro_1.stopped,intro_2.started,intro2_resp.started,intro2_resp.keys,intro2_resp.rt,Intro_3.started,intro3_resp.started,intro3_resp.keys,intro3_resp.rt,pracintro.started,pracintro_resp.started,pracintro_resp.keys,pracintro_resp.rt,image.started,early.started,RESP.started,late.started,pracfeedback.started,pracfeedback.stopped,text_4.started,text_4.stopped,text_5.started,baselinerecord.started,intro_5.started,intro5_resp.started,intro5_resp.keys,intro5_resp.rt,main_image_2.started,etRecord.started,main_image_2.stopped,fix.started,fix.stopped,main_early.started,ct_resp.started,main_late.started,ct_resp.keys,ct_resp.corr,ct_resp.rt,intro.started,intro2_resp_2.started,intro2_resp_2.keys,intro2_resp_2.rt,fengjing.started,text.started,fengjing.stopped,text.stopped,key_resp.started,text_2.started,text_3.started,key_resp.keys,key_resp.corr,key_resp.rt,intro_6.started,intro5_resp_2.started,intro5_resp_2.keys,intro5_resp_2.rt,intro_3.started,intro2_resp_3.started,intro2_resp_3.keys,intro2_resp_3.rt,intro_7.started,intro2_resp_5.started,intro2_resp_5.keys,intro2_resp_5.rt,intro_4.started,intro2_resp_4.started,intro2_resp_4.keys,intro2_resp_4.rt,intro_8.started,intro2_resp_6.started,intro2_resp_6.keys,intro2_resp_6.rt,theend.started,theend.stopped,participant,session,date,expName,psychopyVersion,frameRate,
,,,,,,,,,,,,,,,,,,,,,,,,,,,,,,,,,,,,,,,,,,,,,,,,,,,,,,86.41451120004058,88.41476270003477,88.41476270003477,88.41476270003477,space,9.401607699983288,,,,,,,,,,,,,,,,,,,,,,,,,,,,,,,,,,,,,,,,,,,,,,,,,,,,,,,,,,,,,,,,,,,,,,010,001,2023-11-21_16h21.36.433,ETproject_Chi_2023.1.1,2023.1.1,60.015688101552,
,,,,,,,,,,,,,,,,,,,,,,,,,,,,,,,,,,,,,,,,,,,,,,,,,,,,,,,,,,,,97.84531190001871,97.84531190001871,space,42.755476099962834,,,,,,,,,,,,,,,,,,,,,,,,,,,,,,,,,,,,,,,,,,,,,,,,,,,,,,,,,,,,,,,,,,010,001,2023-11-21_16h21.36.433,ETproject_Chi_2023.1.1,2023.1.1,60.015688101552,
1,practice,星期三 ,星期四,congruent,Hori,early,left,image/Chi_early.png,"[-0.4, 0]","[0.4, 0]",,,,,,,,0,0,0,0,0,0,0,0,,,,,,,,,,,,,,,,,,,,,,,,,,,,,,,,,,,,,,,140.672522900044,140.672522900044,space,8.991569700010587,149.75375020003412,150.7108092000126,150.7108092000126,150.7108092000126,152.280723200005,,,,,,,,,,,,,,,,,,,,,,,,,,,,,,,,,,,,,,,,,,,,,,,,,,,,,,,,,010,001,2023-11-21_16h21.36.433,ETproject_Chi_2023.1.1,2023.1.1,60.015688101552,
6,practice,星期四,星期三 ,incongruent,Hori,late,left,image/Chi_late.png,"[-0.4, 0]","[0.4, 0]",,,,,,,,0,0,0,0,0,1,1,5,,,,,,,,,,,,,,,,,,,,,,,,,,,,,,,,,,,,,,,,,,,153.29998760001035,154.29292180004995,154.29292180004995,154.29292180004995,155.8426812000107,156.84425460000057,,,,,,,,,,,,,,,,,,,,,,,,,,,,,,,,,,,,,,,,,,,,,,,,,,,,,,,,010,001,2023-11-21_16h21.36.433,ETproject_Chi_2023.1.1,2023.1.1,60.015688101552,
4,practice,星期日,星期一,congruent,Vert,late,down,image/Chi_late.png,"[0, 0.4]","[0, -0.4]",,,,,,,,0,0,0,0,0,2,2,3,,,,,,,,,,,,,,,,,,,,,,,,,,,,,,,,,,,,,,,,,,,156.84425460000057,157.85845050000353,157.85845050000353,157.85845050000353,161.7739332000492,162.77880390000064,,,,,,,,,,,,,,,,,,,,,,,,,,,,,,,,,,,,,,,,,,,,,,,,,,,,,,,,010,001,2023-11-21_16h21.36.433,ETproject_Chi_2023.1.1,2023.1.1,60.015688101552,
5,practice,星期二,星期一,incongruent,Hori,early,right,image/Chi_early.png,"[-0.4, 0]","[0.4, 0]",,,,,,,,0,0,0,0,0,3,3,4,,,,,,,,,,,,,,,,,,,,,,,,,,,,,,,,,,,,,,,,,,,162.77880390000064,163.78985080000712,163.78985080000712,163.78985080000712,165.18964580004103,166.19144960003905,,,,,,,,,,,,,,,,,,,,,,,,,,,,,,,,,,,,,,,,,,,,,,,,,,,,,,,,010,001,2023-11-21_16h21.36.433,ETproject_Chi_2023.1.1,2023.1.1,60.015688101552,
3,practice,星期一,星期二,congruent,Vert,early,up,image/Chi_early.png,"[0, 0.4]","[0, -0.4]",,,,,,,,0,0,0,0,0,4,4,2,,,,,,,,,,,,,,,,,,,,,,,,,,,,,,,,,,,,,,,,,,,166.19144960003905,167.20554450002965,167.20554450002965,167.20554450002965,168.20541520003462,169.21040949999588,,,,,,,,,,,,,,,,,,,,,,,,,,,,,,,,,,,,,,,,,,,,,,,,,,,,,,,,010,001,2023-11-21_16h21.36.433,ETproject_Chi_2023.1.1,2023.1.1,60.015688101552,
8,practice,星期六,星期五,incongruent,Vert,late,up,image/Chi_late.png,"[0, 0.4]","[0, -0.4]",,,,,,,,0,0,0,0,0,5,5,7,,,,,,,,,,,,,,,,,,,,,,,,,,,,,,,,,,,,,,,,,,,169.21040949999588,170.2210009000264,170.2210009000264,170.2210009000264,172.27065740001854,173.27393160003703,,,,,,,,,,,,,,,,,,,,,,,,,,,,,,,,,,,,,,,,,,,,,,,,,,,,,,,,010,001,2023-11-21_16h21.36.433,ETproject_Chi_2023.1.1,2023.1.1,60.015688101552,
7,practice,星期三 ,星期二,incongruent,Vert,early,down,image/Chi_early.png,"[0, 0.4]","[0, -0.4]",,,,,,,,0,0,0,0,0,6,6,6,,,,,,,,,,,,,,,,,,,,,,,,,,,,,,,,,,,,,,,,,,,173.27393160003703,174.28642630000832,174.28642630000832,174.28642630000832,178.25438920001034,,,,,,,,,,,,,,,,,,,,,,,,,,,,,,,,,,,,,,,,,,,,,,,,,,,,,,,,,010,001,2023-11-21_16h21.36.433,ETproject_Chi_2023.1.1,2023.1.1,60.015688101552,
2,practice,星期五,星期六,congruent,Hori,late,right,image/Chi_late.png,"[-0.4, 0]","[0.4, 0]",,,,,,,,0,0,0,0,0,7,7,1,,,,,,,,,,,,,,,,,,,,,,,,,,,,,,,,,,,,,,,,,,,179.27538450004067,180.26766810001573,180.26766810001573,180.26766810001573,181.55076589999953,182.55032520001987,,,,,,,,,,,,,,,,,,,,,,,,,,,,,,,,,,,,,,,,,,,,,,,,,,,,,,,,010,001,2023-11-21_16h21.36.433,ETproject_Chi_2023.1.1,2023.1.1,60.015688101552,
,,,,,,,,,,,,,,,,,,0,0,0,0,,,,,,,,,,,,,,,,,,,,,,,,,,,,,,,,,,,,,,,,,,,,,,,,,,,,,,,,,,,,,,,,,,,,,,,,,,,,,,,,,,,,,,,,,,,,,,,,,,,,,,,,,,,,010,001,2023-11-21_16h21.36.433,ETproject_Chi_2023.1.1,2023.1.1,60.015688101552,
,,,,,,,,,,,,,,,,,,,,,,,,,,,,,,,,,,,,,,,,,,,,,,,,,,,,,,,,,,,,,,,,,,,,,,,,,,182.55032520001987,185.54921010002727,185.54921010002727,3.0145978999789804,189.5647949000122,189.5647949000122,space,1.883893399965018,,,,,,,,,,,,,,,,,,,,,,,,,,,,,,,,,,,,,,,,,,,,,,,,010,001,2023-11-21_16h21.36.433,ETproject_Chi_2023.1.1,2023.1.1,60.015688101552,
125,Week,星期三 ,星期一,,Hori,early,right,image/Chi_early.png,"[-0.4, 0]","[0.4, 0]",2,incongruent,,,,,,,,,,,,,,0,0,0,5,,,,,,,,,,,,,,,,,,,,,,,,,,,,,,,,,,,,,,,,,,,,,,,,,,,,,191.5005312000285,0.9993866999866441,192.51375480002025,192.58034860005137,193.38017630000832,193.4800985000329,193.4800985000329,193.4800985000329,right,1,1.2961201000143774,,,,,,,,,,,,,,,,,,,,,,,,,,,,,,,,,,,,,010,001,2023-11-21_16h21.36.433,ETproject_Chi_2023.1.1,2023.1.1,60.015688101552,
20,Month,四月,八月,,Vert,early,up,image/Chi_early.png,"[0, 0.4]","[0, -0.4]",4,congruent,,,,,,,,,,,,,,0,1,1,4,,,,,,,,,,,,,,,,,,,,,,,,,,,,,,,,,,,,,,,,,,,,,,,,,,,,,194.8069110000506,1.0126921000191942,195.8126351000392,195.89604439999675,196.6958204000257,196.79560870002024,196.79560870002024,196.79560870002024,up,1,1.6839515999890864,,,,,,,,,,,,,,,,,,,,,,,,,,,,,,,,,,,,,010,001,2023-11-21_16h21.36.433,ETproject_Chi_2023.1.1,2023.1.1,60.015688101552,
49,Month,七月,四月,,Hori,late,left,image/Chi_late.png,"[-0.4, 0]","[0.4, 0]",3,incongruent,,,,,,,,,,,,,,0,2,2,38,,,,,,,,,,,,,,,,,,,,,,,,,,,,,,,,,,,,,,,,,,,,,,,,,,,,,198.52544140000828,1.0155025999993086,199.52813270001207,199.61137580004288,200.41109780000988,200.51107619999675,200.51107619999675,200.51107619999675,left,1,1.5618087000329979,,,,,,,,,,,,,,,,,,,,,,,,,,,,,,,,,,,,,010,001,2023-11-21_16h21.36.433,ETproject_Chi_2023.1.1,2023.1.1,60.015688101552,
106,Week,星期三 ,星期六,,Hori,late,right,image/Chi_late.png,"[-0.4, 0]","[0.4, 0]",3,congruent,,,,,,,,,,,,,,0,3,3,3,,,,,,,,,,,,,,,,,,,,,,,,,,,,,,,,,,,,,,,,,,,,,,,,,,,,,202.10399720002897,1.0106649000081234,203.11007600004086,203.19375400000717,203.9932669000118,204.09335680003278,204.09335680003278,204.09335680003278,right,1,1.4908882000017911,,,,,,,,,,,,,,,,,,,,,,,,,,,,,,,,,,,,,010,001,2023-11-21_16h21.36.433,ETproject_Chi_2023.1.1,2023.1.1,60.015688101552,
99,Week,星期三 ,星期六,,Hori,early,left,image/Chi_early.png,"[-0.4, 0]","[0.4, 0]",3,congruent,,,,,,,,,,,,,,0,4,4,6,,,,,,,,,,,,,,,,,,,,,,,,,,,,,,,,,,,,,,,,,,,,,,,,,,,,,205.61954080004944,1.0122918999986723,206.6256261000526,206.70898320002016,207.5088911000057,207.60877590003656,207.60877590003656,207.60877590003656,left,1,1.1680371999973431,,,,,,,,,,,,,,,,,,,,,,,,,,,,,,,,,,,,,010,001,2023-11-21_16h21.36.433,ETproject_Chi_2023.1.1,2023.1.1,60.015688101552,
132,Week,星期四,星期一,,Hori,late,left,image/Chi_late.png,"[-0.4, 0]","[0.4, 0]",3,incongruent,,,,,,,,,,,,,,0,5,5,19,,,,,,,,,,,,,,,,,,,,,,,,,,,,,,,,,,,,,,,,,,,,,,,,,,,,,208.82118850003462,1.010641900007613,209.82458320003934,209.90793240000494,210.70780270005343,210.8078701000195,210.8078701000195,210.8078701000195,left,1,1.8966936999931931,,,,,,,,,,,,,,,,,,,,,,,,,,,,,,,,,,,,,010,001,2023-11-21_16h21.36.433,ETproject_Chi_2023.1.1,2023.1.1,60.015688101552,
1,Month,一月,二月 ,,Hori,early,left,image/Chi_early.png,"[-0.4, 0]","[0.4, 0]",1,congruent,,,,,,,,,,,,,,0,6,6,28,,,,,,,,,,,,,,,,,,,,,,,,,,,,,,,,,,,,,,,,,,,,,,,,,,,,,212.737168200023,0.9991427999921143,213.74000290001277,213.8236255000229,214.6231835000217,214.72315240005264,214.72315240005264,214.72315240005264,left,1,1.1010672000120394,,,,,,,,,,,,,,,,,,,,,,,,,,,,,,,,,,,,,010,001,2023-11-21_16h21.36.433,ETproject_Chi_2023.1.1,2023.1.1,60.015688101552,
150,Week,星期日,星期五,,Vert,late,up,image/Chi_late.png,"[0, 0.4]","[0, -0.4]",2,incongruent,,,,,,,,,,,,,,0,7,7,46,,,,,,,,,,,,,,,,,,,,,,,,,,,,,,,,,,,,,,,,,,,,,,,,,,,,,215.8698819000274,1.0148093000170775,216.87236960005248,216.95572980004363,217.75547870004084,217.8554985000519,217.8554985000519,217.8554985000519,up,1,2.616371200012509,,,,,,,,,,,,,,,,,,,,,,,,,,,,,,,,,,,,,010,001,2023-11-21_16h21.36.433,ETproject_Chi_2023.1.1,2023.1.1,60.015688101552,
101,Week,星期五,星期六,,Hori,early,left,image/Chi_early.png,"[-0.4, 0]","[0.4, 0]",1,congruent,,,,,,,,,,,,,,0,8,8,42,,,,,,,,,,,,,,,,,,,,,,,,,,,,,,,,,,,,,,,,,,,,,,,,,,,,,220.49909900000785,1.0148019999614917,221.50413570000092,221.58748970000306,222.3872212000424,222.48727780004265,222.48727780004265,222.48727780004265,left,1,1.3292050999589264,,,,,,,,,,,,,,,,,,,,,,,,,,,,,,,,,,,,,010,001,2023-11-21_16h21.36.433,ETproject_Chi_2023.1.1,2023.1.1,60.015688101552,
63,Month,十二月,九月 ,,Vert,early,down,image/Chi_early.png,"[0, 0.4]","[0, -0.4]",3,incongruent,,,,,,,,,,,,,,0,9,9,22,,,,,,,,,,,,,,,,,,,,,,,,,,,,,,,,,,,,,,,,,,,,,,,,,,,,,223.84532890003175,1.0154980000224896,224.85305530001642,224.93646450003143,225.73628820001613,225.83602950000204,225.83602950000204,225.83602950000204,down,1,1.7967884000390768,,,,,,,,,,,,,,,,,,,,,,,,,,,,,,,,,,,,,010,001,2023-11-21_16h21.36.433,ETproject_Chi_2023.1.1,2023.1.1,60.015688101552,
12,Week,星期日,星期四,,Vert,late,up,image/Chi_late.png,"[0, 0.4]","[0, -0.4]",3,incongruent,,,,,,,,,,,,,,0,10,10,9,,,,,,,,,,,,,,,,,,,,,,,,,,,,,,,,,,,,,,,,,,,,,,,,,,,,,227.66510660003405,1.0114231000188738,228.6684047000017,228.75183970003854,229.55158970004413,229.65136970003368,229.65136970003368,229.65136970003368,up,1,1.692813900008332,,,,,,,,,,,,,,,,,,,,,,,,,,,,,,,,,,,,,010,001,2023-11-21_16h21.36.433,ETproject_Chi_2023.1.1,2023.1.1,60.015688101552,
118,Week,星期一,星期四,,Vert,late,down,image/Chi_late.png,"[0, 0.4]","[0, -0.4]",3,congruent,,,,,,,,,,,,,,0,11,11,45,,,,,,,,,,,,,,,,,,,,,,,,,,,,,,,,,,,,,,,,,,,,,,,,,,,,,231.37324440001976,1.0135390000068583,232.38389600004302,232.46731110004475,233.26713430002565,233.36701820004964,233.36701820004964,233.36701820004964,down,1,2.0727308999630623,,,,,,,,,,,,,,,,,,,,,,,,,,,,,,,,,,,,,010,001,2023-11-21_16h21.36.433,ETproject_Chi_2023.1.1,2023.1.1,60.015688101552,
77,Month,九月 ,七月,,Vert,late,up,image/Chi_late.png,"[0, 0.4]","[0, -0.4]",2,incongruent,,,,,,,,,,,,,,0,12,12,43,,,,,,,,,,,,,,,,,,,,,,,,,,,,,,,,,,,,,,,,,,,,,,,,,,,,,235.47958670003572,1.0108541999943554,236.4825140000321,236.5658689000411,237.3656023000367,237.46552560001146,237.46552560001146,237.46552560001146,up,1,1.7991935000172816,,,,,,,,,,,,,,,,,,,,,,,,,,,,,,,,,,,,,010,001,2023-11-21_16h21.36.433,ETproject_Chi_2023.1.1,2023.1.1,60.015688101552,
114,Week,星期四,星期日,,Vert,early,up,image/Chi_early.png,"[0, 0.4]","[0, -0.4]",3,congruent,,,,,,,,,,,,,,0,13,13,12,,,,,,,,,,,,,,,,,,,,,,,,,,,,,,,,,,,,,,,,,,,,,,,,,,,,,239.30006239999784,1.0118903000256978,240.3146326999995,240.38126710004872,241.18090540001867,241.28105530003086,241.28105530003086,241.28105530003086,up,1,1.8881617999868467,,,,,,,,,,,,,,,,,,,,,,,,,,,,,,,,,,,,,010,001,2023-11-21_16h21.36.433,ETproject_Chi_2023.1.1,2023.1.1,60.015688101552,
23,Month,七月,十一月 ,,Vert,early,up,image/Chi_early.png,"[0, 0.4]","[0, -0.4]",4,congruent,,,,,,,,,,,,,,0,14,14,48,,,,,,,,,,,,,,,,,,,,,,,,,,,,,,,,,,,,,,,,,,,,,,,,,,,,,243.2086103000329,1.0121052999747917,244.21327700000256,244.29669119999744,245.09642360004364,245.19636880001053,245.19636880001053,245.19636880001053,up,1,2.387392100004945,,,,,,,,,,,,,,,,,,,,,,,,,,,,,,,,,,,,,010,001,2023-11-21_16h21.36.433,ETproject_Chi_2023.1.1,2023.1.1,60.015688101552,
6,Month,六月,十月 ,,Hori,early,left,image/Chi_early.png,"[-0.4, 0]","[0.4, 0]",4,congruent,,,,,,,,,,,,,,0,15,15,29,,,,,,,,,,,,,,,,,,,,,,,,,,,,,,,,,,,,,,,,,,,,,,,,,,,,,247.6197603000328,1.0146829000441357,248.6285099000088,248.7117618000484,249.5115441000089,249.61151140002767,249.61151140002767,249.61151140002767,left,1,3.9401218999992125,,,,,,,,,,,,,,,,,,,,,,,,,,,,,,,,,,,,,010,001,2023-11-21_16h21.36.433,ETproject_Chi_2023.1.1,2023.1.1,60.015688101552,
107,Week,星期四,星期六,,Hori,late,right,image/Chi_late.png,"[-0.4, 0]","[0.4, 0]",2,congruent,,,,,,,,,,,,,,0,16,16,16,,,,,,,,,,,,,,,,,,,,,,,,,,,,,,,,,,,,,,,,,,,,,,,,,,,,,253.59790790005354,1.0116086000343785,254.60982640000293,254.6767197000445,255.47643070004415,255.57626180001535,255.57626180001535,255.57626180001535,left,0,2.0808928000042215,,,,,,,,,,,,,,,,,,,,,,,,,,,,,,,,,,,,,010,001,2023-11-21_16h21.36.433,ETproject_Chi_2023.1.1,2023.1.1,60.015688101552,
24,Month,四月,六月,,Vert,early,up,image/Chi_early.png,"[0, 0.4]","[0, -0.4]",2,congruent,,,,,,,,,,,,,,0,17,17,8,,,,,,,,,,,,,,,,,,,,,,,,,,,,,,,,,,,,,,,,,,,,,,,,,,,,,257.6919646000024,1.0098993999999948,258.6919009000412,258.7751798000536,259.5750348000438,259.67487330001313,259.67487330001313,259.67487330001313,up,1,1.3660233999835327,,,,,,,,,,,,,,,,,,,,,,,,,,,,,,,,,,,,,010,001,2023-11-21_16h21.36.433,ETproject_Chi_2023.1.1,2023.1.1,60.015688101552,
97,Week,星期一,星期四,,Hori,early,left,image/Chi_early.png,"[-0.4, 0]","[0.4, 0]",3,congruent,,,,,,,,,,,,,,0,18,18,20,,,,,,,,,,,,,,,,,,,,,,,,,,,,,,,,,,,,,,,,,,,,,,,,,,,,,261.0644805000047,1.0131750999717042,262.0740861000377,262.1574469000334,262.9571997000021,263.05723140004557,263.05723140004557,263.05723140004557,left,1,1.6792021000292152,,,,,,,,,,,,,,,,,,,,,,,,,,,,,,,,,,,,,010,001,2023-11-21_16h21.36.433,ETproject_Chi_2023.1.1,2023.1.1,60.015688101552,
34,Month,六月,二月,,Hori,early,right,image/Chi_early.png,"[-0.4, 0]","[0.4, 0]",4,incongruent,,,,,,,,,,,,,,0,19,19,21,,,,,,,,,,,,,,,,,,,,,,,,,,,,,,,,,,,,,,,,,,,,,,,,,,,,,264.76398250000784,1.0142887000110932,265.77265580004314,265.85592550004367,266.65596370003186,266.7559212000342,266.7559212000342,266.7559212000342,right,1,1.7570384999853559,,,,,,,,,,,,,,,,,,,,,,,,,,,,,,,,,,,,,010,001,2023-11-21_16h21.36.433,ETproject_Chi_2023.1.1,2023.1.1,60.015688101552,
112,Week,星期二,星期三 ,,Vert,early,up,image/Chi_early.png,"[0, 0.4]","[0, -0.4]",1,congruent,,,,,,,,,,,,,,0,20,20,31,,,,,,,,,,,,,,,,,,,,,,,,,,,,,,,,,,,,,,,,,,,,,,,,,,,,,268.5448699000408,0.999395499995444,269.5549584000255,269.63822360004997,270.43798580003204,270.53799820004497,270.53799820004497,270.53799820004497,up,1,1.893649700039532,,,,,,,,,,,,,,,,,,,,,,,,,,,,,,,,,,,,,010,001,2023-11-21_16h21.36.433,ETproject_Chi_2023.1.1,2023.1.1,60.015688101552,
38,Month,八月,十月 ,,Vert,late,down,image/Chi_late.png,"[0, 0.4]","[0, -0.4]",2,congruent,,,,,,,,,,,,,,0,21,21,37,,,,,,,,,,,,,,,,,,,,,,,,,,,,,,,,,,,,,,,,,,,,,,,,,,,,,272.46952060004696,1.0121233999961987,273.4701996000367,273.5537797000143,274.35348160000285,274.45363950001774,274.45363950001774,274.45363950001774,down,1,1.7312951000058092,,,,,,,,,,,,,,,,,,,,,,,,,,,,,,,,,,,,,010,001,2023-11-21_16h21.36.433,ETproject_Chi_2023.1.1,2023.1.1,60.015688101552,
46,Month,四月,一月,,Hori,late,left,image/Chi_late.png,"[-0.4, 0]","[0.4, 0]",3,incongruent,,,,,,,,,,,,,,0,22,22,14,,,,,,,,,,,,,,,,,,,,,,,,,,,,,,,,,,,,,,,,,,,,,,,,,,,,,276.21229160000803,1.014956799976062,277.21911880001426,277.3023928000475,278.10212480003247,278.20219480001833,278.20219480001833,278.20219480001833,left,1,2.0306056999834254,,,,,,,,,,,,,,,,,,,,,,,,,,,,,,,,,,,,,010,001,2023-11-21_16h21.36.433,ETproject_Chi_2023.1.1,2023.1.1,60.015688101552,
50,Month,八月,五月,,Hori,late,left,image/Chi_late.png,"[-0.4, 0]","[0.4, 0]",3,incongruent,,,,,,,,,,,,,,0,23,23,35,,,,,,,,,,,,,,,,,,,,,,,,,,,,,,,,,,,,,,,,,,,,,,,,,,,,,280.2600570000359,1.0120646000141278,281.26765670004534,281.3511339999968,282.15084980003303,282.25080840004375,282.25080840004375,282.25080840004375,left,1,1.9582384999957867,,,,,,,,,,,,,,,,,,,,,,,,,,,,,,,,,,,,,010,001,2023-11-21_16h21.36.433,ETproject_Chi_2023.1.1,2023.1.1,60.015688101552,
34,Month,七月,十月 ,,Vert,late,down,image/Chi_late.png,"[0, 0.4]","[0, -0.4]",3,congruent,,,,,,,,,,,,,,0,24,24,11,,,,,,,,,,,,,,,,,,,,,,,,,,,,,,,,,,,,,,,,,,,,,,,,,,,,,285.2392471000203,1.013995400047861,286.249467000016,286.33277680003084,287.13272520003375,287.2323748000199,287.2323748000199,287.2323748000199,down,1,1.6963854000205174,,,,,,,,,,,,,,,,,,,,,,,,,,,,,,,,,,,,,010,001,2023-11-21_16h21.36.433,ETproject_Chi_2023.1.1,2023.1.1,60.015688101552,
126,Week,星期三 ,星期二,,Hori,early,right,image/Chi_early.png,"[-0.4, 0]","[0.4, 0]",1,incongruent,,,,,,,,,,,,,,0,25,25,25,,,,,,,,,,,,,,,,,,,,,,,,,,,,,,,,,,,,,,,,,,,,,,,,,,,,,288.96082269999897,1.0129130000132136,289.96478080004454,290.0482380000176,290.8479548000032,290.94816510000965,290.94816510000965,290.94816510000965,right,1,1.4043399000074714,,,,,,,,,,,,,,,,,,,,,,,,,,,,,,,,,,,,,010,001,2023-11-21_16h21.36.433,ETproject_Chi_2023.1.1,2023.1.1,60.015688101552,
58,Month,六月,二月,,Vert,late,up,image/Chi_late.png,"[0, 0.4]","[0, -0.4]",4,incongruent,,,,,,,,,,,,,,0,26,26,18,,,,,,,,,,,,,,,,,,,,,,,,,,,,,,,,,,,,,,,,,,,,,,,,,,,,,292.3888435999979,0.9991668000002392,293.3973108000355,293.480455300014,294.2801611000323,294.3801136999973,294.3801136999973,294.3801136999973,up,1,2.476160600024741,,,,,,,,,,,,,,,,,,,,,,,,,,,,,,,,,,,,,010,001,2023-11-21_16h21.36.433,ETproject_Chi_2023.1.1,2023.1.1,60.015688101552,
59,Month,七月,三月,,Vert,late,up,image/Chi_late.png,"[0, 0.4]","[0, -0.4]",4,incongruent,,,,,,,,,,,,,,0,27,27,47,,,,,,,,,,,,,,,,,,,,,,,,,,,,,,,,,,,,,,,,,,,,,,,,,,,,,296.8947129000444,0.9990281999926083,297.89566330000525,297.9790825000382,298.77861660002964,298.8787476000143,298.8787476000143,298.8787476000143,up,1,1.513588499976322,,,,,,,,,,,,,,,,,,,,,,,,,,,,,,,,,,,,,010,001,2023-11-21_16h21.36.433,ETproject_Chi_2023.1.1,2023.1.1,60.015688101552,
29,Month,七月,八月,,Vert,early,up,image/Chi_early.png,"[0, 0.4]","[0, -0.4]",1,congruent,,,,,,,,,,,,,,0,28,28,2,,,,,,,,,,,,,,,,,,,,,,,,,,,,,,,,,,,,,,,,,,,,,,,,,,,,,300.4266817000462,1.0106916000368074,301.4279815000482,301.511076099996,302.31079980003415,302.41080500005046,302.41080500005046,302.41080500005046,up,1,1.4694204000406899,,,,,,,,,,,,,,,,,,,,,,,,,,,,,,,,,,,,,010,001,2023-11-21_16h21.36.433,ETproject_Chi_2023.1.1,2023.1.1,60.015688101552,
24,Month,六月,九月 ,,Vert,early,up,image/Chi_early.png,"[0, 0.4]","[0, -0.4]",3,congruent,,,,,,,,,,,,,,0,29,29,33,,,,,,,,,,,,,,,,,,,,,,,,,,,,,,,,,,,,,,,,,,,,,,,,,,,,,303.9183974000043,1.0131931999931112,304.92675860004965,305.01000740000745,305.80979389999993,305.90959799999837,305.90959799999837,305.90959799999837,up,1,1.2821997000137344,,,,,,,,,,,,,,,,,,,,,,,,,,,,,,,,,,,,,010,001,2023-11-21_16h21.36.433,ETproject_Chi_2023.1.1,2023.1.1,60.015688101552,
26,Month,六月,八月,,Vert,early,up,image/Chi_early.png,"[0, 0.4]","[0, -0.4]",2,congruent,,,,,,,,,,,,,,0,30,30,32,,,,,,,,,,,,,,,,,,,,,,,,,,,,,,,,,,,,,,,,,,,,,,,,,,,,,307.2206348000327,1.011573799944017,308.2254714000155,308.30904120003106,309.1086459000362,309.2088302000193,309.2088302000193,309.2088302000193,up,1,1.2797968999948353,,,,,,,,,,,,,,,,,,,,,,,,,,,,,,,,,,,,,010,001,2023-11-21_16h21.36.433,ETproject_Chi_2023.1.1,2023.1.1,60.015688101552,
127,Week,星期五,星期三 ,,Hori,early,right,image/Chi_early.png,"[-0.4, 0]","[0.4, 0]",2,incongruent,,,,,,,,,,,,,,0,31,31,13,,,,,,,,,,,,,,,,,,,,,,,,,,,,,,,,,,,,,,,,,,,,,,,,,,,,,310.5204304000363,1.0107593999709934,311.5247190000373,311.6076770000509,312.4075806000037,312.5076834000065,312.5076834000065,312.5076834000065,right,1,2.1734068999649025,,,,,,,,,,,,,,,,,,,,,,,,,,,,,,,,,,,,,010,001,2023-11-21_16h21.36.433,ETproject_Chi_2023.1.1,2023.1.1,60.015688101552,
142,Week,星期五,星期四,,Vert,early,down,image/Chi_early.png,"[0, 0.4]","[0, -0.4]",1,incongruent,,,,,,,,,,,,,,0,32,32,0,,,,,,,,,,,,,,,,,,,,,,,,,,,,,,,,,,,,,,,,,,,,,,,,,,,,,314.71555880003143,1.0111811999813654,315.72336380003253,315.8064564000233,316.6062921000412,316.7062302000122,316.7062302000122,316.7062302000122,down,1,1.6695653999922797,,,,,,,,,,,,,,,,,,,,,,,,,,,,,,,,,,,,,010,001,2023-11-21_16h21.36.433,ETproject_Chi_2023.1.1,2023.1.1,60.015688101552,
98,Week,星期二,星期三 ,,Hori,early,left,image/Chi_early.png,"[-0.4, 0]","[0.4, 0]",1,congruent,,,,,,,,,,,,,,0,33,33,49,,,,,,,,,,,,,,,,,,,,,,,,,,,,,,,,,,,,,,,,,,,,,,,,,,,,,318.4162480000523,1.0112820999929681,319.42195970000466,319.5052415000391,320.3050326000084,320.4049329000409,320.4049329000409,320.4049329000409,left,1,0.8906667999690399,,,,,,,,,,,,,,,,,,,,,,,,,,,,,,,,,,,,,010,001,2023-11-21_16h21.36.433,ETproject_Chi_2023.1.1,2023.1.1,60.015688101552,
75,Month,十月 ,九月 ,,Vert,early,down,image/Chi_early.png,"[0, 0.4]","[0, -0.4]",1,incongruent,,,,,,,,,,,,,,0,34,34,1,,,,,,,,,,,,,,,,,,,,,,,,,,,,,,,,,,,,,,,,,,,,,,,,,,,,,321.3289904000121,1.011694599990733,322.3375753000146,322.4209428000031,323.22053970000707,323.32057710003573,323.32057710003573,323.32057710003573,down,1,1.9522576999734156,,,,,,,,,,,,,,,,,,,,,,,,,,,,,,,,,,,,,010,001,2023-11-21_16h21.36.433,ETproject_Chi_2023.1.1,2023.1.1,60.015688101552,
150,Week,星期六,星期五,,Vert,late,up,image/Chi_late.png,"[0, 0.4]","[0, -0.4]",1,incongruent,,,,,,,,,,,,,,0,35,35,23,,,,,,,,,,,,,,,,,,,,,,,,,,,,,,,,,,,,,,,,,,,,,,,,,,,,,325.3160728000221,1.0147011000080965,326.3193814000115,326.4027976000216,327.20262630004436,327.3026374000474,327.3026374000474,327.3026374000474,up,1,1.2580608000280336,,,,,,,,,,,,,,,,,,,,,,,,,,,,,,,,,,,,,010,001,2023-11-21_16h21.36.433,ETproject_Chi_2023.1.1,2023.1.1,60.015688101552,
112,Week,星期二,星期五,,Vert,early,up,image/Chi_early.png,"[0, 0.4]","[0, -0.4]",3,congruent,,,,,,,,,,,,,,0,36,36,24,,,,,,,,,,,,,,,,,,,,,,,,,,,,,,,,,,,,,,,,,,,,,,,,,,,,,328.59156960004475,0.9990892999921925,329.6018148000003,329.68526729999576,330.4850140000344,330.5848009000183,330.5848009000183,330.5848009000183,up,1,1.0562767999945208,,,,,,,,,,,,,,,,,,,,,,,,,,,,,,,,,,,,,010,001,2023-11-21_16h21.36.433,ETproject_Chi_2023.1.1,2023.1.1,60.015688101552,
13,Month,四月,七月,,Hori,late,right,image/Chi_late.png,"[-0.4, 0]","[0.4, 0]",3,congruent,,,,,,,,,,,,,,0,37,37,41,,,,,,,,,,,,,,,,,,,,,,,,,,,,,,,,,,,,,,,,,,,,,,,,,,,,,331.6798986000358,1.0148799999733455,332.68418740003835,332.7675008000224,333.5672137000365,333.66712980001466,333.66712980001466,333.66712980001466,right,1,0.9897611999767832,,,,,,,,,,,,,,,,,,,,,,,,,,,,,,,,,,,,,010,001,2023-11-21_16h21.36.433,ETproject_Chi_2023.1.1,2023.1.1,60.015688101552,
45,Month,九月 ,五月,,Hori,late,left,image/Chi_late.png,"[-0.4, 0]","[0.4, 0]",4,incongruent,,,,,,,,,,,,,,0,38,38,39,,,,,,,,,,,,,,,,,,,,,,,,,,,,,,,,,,,,,,,,,,,,,,,,,,,,,334.6900231000036,1.0150922000175342,335.6997641000198,335.7832821000484,336.5829546000459,336.6828735000454,336.6828735000454,336.6828735000454,left,1,1.052854200010188,,,,,,,,,,,,,,,,,,,,,,,,,,,,,,,,,,,,,010,001,2023-11-21_16h21.36.433,ETproject_Chi_2023.1.1,2023.1.1,60.015688101552,
148,Week,星期六,星期三 ,,Vert,late,up,image/Chi_late.png,"[0, 0.4]","[0, -0.4]",3,incongruent,,,,,,,,,,,,,,0,39,39,26,,,,,,,,,,,,,,,,,,,,,,,,,,,,,,,,,,,,,,,,,,,,,,,,,,,,,337.784892900032,1.01262150000548,338.79896310000913,338.8653888000408,339.6652912000427,339.7654237000388,339.7654237000388,339.7654237000388,up,1,1.331668900034856,,,,,,,,,,,,,,,,,,,,,,,,,,,,,,,,,,,,,010,001,2023-11-21_16h21.36.433,ETproject_Chi_2023.1.1,2023.1.1,60.015688101552,
16,Month,六月,八月,,Hori,late,right,image/Chi_late.png,"[-0.4, 0]","[0.4, 0]",2,congruent,,,,,,,,,,,,,,0,40,40,30,,,,,,,,,,,,,,,,,,,,,,,,,,,,,,,,,,,,,,,,,,,,,,,,,,,,,341.12232590001076,1.015341000049375,342.13100029999623,342.2143511000322,343.0141123000067,343.1140807000338,343.1140807000338,343.1140807000338,right,1,1.4788960999576375,,,,,,,,,,,,,,,,,,,,,,,,,,,,,,,,,,,,,010,001,2023-11-21_16h21.36.433,ETproject_Chi_2023.1.1,2023.1.1,60.015688101552,
136,Week,星期日,星期五,,Hori,late,left,image/Chi_late.png,"[-0.4, 0]","[0.4, 0]",2,incongruent,,,,,,,,,,,,,,0,41,41,17,,,,,,,,,,,,,,,,,,,,,,,,,,,,,,,,,,,,,,,,,,,,,,,,,,,,,344.62702390004415,1.0107076999847777,345.63002100004815,345.7133724000305,346.51296080002794,346.6131781000295,346.6131781000295,346.6131781000295,left,1,1.2043622999917716,,,,,,,,,,,,,,,,,,,,,,,,,,,,,,,,,,,,,010,001,2023-11-21_16h21.36.433,ETproject_Chi_2023.1.1,2023.1.1,60.015688101552,
120,Week,星期三 ,星期六,,Vert,late,down,image/Chi_late.png,"[0, 0.4]","[0, -0.4]",3,congruent,,,,,,,,,,,,,,0,42,42,34,,,,,,,,,,,,,,,,,,,,,,,,,,,,,,,,,,,,,,,,,,,,,,,,,,,,,348.8518629000173,1.0154331999947317,349.8618265000405,349.9453172000358,350.74492440000176,350.84505050000735,350.84505050000735,350.84505050000735,down,1,1.2278121000272222,,,,,,,,,,,,,,,,,,,,,,,,,,,,,,,,,,,,,010,001,2023-11-21_16h21.36.433,ETproject_Chi_2023.1.1,2023.1.1,60.015688101552,
116,Week,星期六,星期日,,Vert,early,up,image/Chi_early.png,"[0, 0.4]","[0, -0.4]",1,congruent,,,,,,,,,,,,,,0,43,43,10,,,,,,,,,,,,,,,,,,,,,,,,,,,,,,,,,,,,,,,,,,,,,,,,,,,,,352.10939300002065,1.0140072999638505,353.1106854000245,353.1941086000297,353.99369830003707,354.0937612000271,354.0937612000271,354.0937612000271,up,1,1.569826299964916,,,,,,,,,,,,,,,,,,,,,,,,,,,,,,,,,,,,,010,001,2023-11-21_16h21.36.433,ETproject_Chi_2023.1.1,2023.1.1,60.015688101552,
141,Week,星期五,星期三 ,,Vert,early,down,image/Chi_early.png,"[0, 0.4]","[0, -0.4]",2,incongruent,,,,,,,,,,,,,,0,44,44,15,,,,,,,,,,,,,,,,,,,,,,,,,,,,,,,,,,,,,,,,,,,,,,,,,,,,,355.6988068000064,1.0156028000055812,356.70938630000455,356.79297820001375,357.5925164000364,357.6925812000409,357.6925812000409,357.6925812000409,down,1,1.8437302999664098,,,,,,,,,,,,,,,,,,,,,,,,,,,,,,,,,,,,,010,001,2023-11-21_16h21.36.433,ETproject_Chi_2023.1.1,2023.1.1,60.015688101552,
62,Month,十月 ,六月,,Vert,late,up,image/Chi_late.png,"[0, 0.4]","[0, -0.4]",4,incongruent,,,,,,,,,,,,,,0,45,45,27,,,,,,,,,,,,,,,,,,,,,,,,,,,,,,,,,,,,,,,,,,,,,,,,,,,,,359.57459720002953,1.0116534000262618,360.57500800001435,360.6582140000537,361.45805980003206,361.55803549999837,361.55803549999837,361.55803549999837,up,1,1.7698609000071883,,,,,,,,,,,,,,,,,,,,,,,,,,,,,,,,,,,,,010,001,2023-11-21_16h21.36.433,ETproject_Chi_2023.1.1,2023.1.1,60.015688101552,
101,Week,星期五,星期日,,Hori,early,left,image/Chi_early.png,"[-0.4, 0]","[0.4, 0]",2,congruent,,,,,,,,,,,,,,0,46,46,40,,,,,,,,,,,,,,,,,,,,,,,,,,,,,,,,,,,,,,,,,,,,,,,,,,,,,363.37011230003554,0.9990207999944687,364.3738596000476,364.45714130002307,365.25689160003094,365.35673719999613,365.35673719999613,365.35673719999613,left,1,1.4682370999944396,,,,,,,,,,,,,,,,,,,,,,,,,,,,,,,,,,,,,010,001,2023-11-21_16h21.36.433,ETproject_Chi_2023.1.1,2023.1.1,60.015688101552,
139,Week,星期四,星期一,,Vert,early,down,image/Chi_early.png,"[0, 0.4]","[0, -0.4]",3,incongruent,,,,,,,,,,,,,,0,47,47,7,,,,,,,,,,,,,,,,,,,,,,,,,,,,,,,,,,,,,,,,,,,,,,,,,,,,,366.8606257000356,0.9992566000437364,367.8725764999981,367.9558690999984,368.7555073000258,368.8558292000089,368.8558292000089,368.8558292000089,down,1,1.0399510000133887,,,,,,,,,,,,,,,,,,,,,,,,,,,,,,,,,,,,,010,001,2023-11-21_16h21.36.433,ETproject_Chi_2023.1.1,2023.1.1,60.015688101552,
143,Week,星期六,星期五,,Vert,early,down,image/Chi_early.png,"[0, 0.4]","[0, -0.4]",1,incongruent,,,,,,,,,,,,,,0,48,48,36,,,,,,,,,,,,,,,,,,,,,,,,,,,,,,,,,,,,,,,,,,,,,,,,,,,,,370.9314732000348,1.0150635999743827,371.9380469000316,372.02124160004314,372.82105800003046,372.9210504000075,372.9210504000075,372.9210504000075,down,1,1.2722774000139907,,,,,,,,,,,,,,,,,,,,,,,,,,,,,,,,,,,,,010,001,2023-11-21_16h21.36.433,ETproject_Chi_2023.1.1,2023.1.1,60.015688101552,
78,Month,十月 ,八月,,Vert,late,up,image/Chi_late.png,"[0, 0.4]","[0, -0.4]",2,incongruent,,,,,,,,,,,,,,0,49,49,44,,,,,,,,,,,,,,,,,,,,,,,,,,,,,,,,,,,,,,,,,,,,,,,,,,,,,374.2313476999989,1.0126722999848425,375.2368067000061,375.32006739999633,376.11974200000986,376.2199290000135,376.2199290000135,376.2199290000135,up,1,1.2923667000140995,,,,,,,,,,,,,,,,,,,,,,,,,,,,,,,,,,,,,010,001,2023-11-21_16h21.36.433,ETproject_Chi_2023.1.1,2023.1.1,60.015688101552,
,,,,,,,,,,,,,,,,,,,,,,,,,,,,,,,,,,,,,,,,,,,,,,,,,,,,,,,,,,,,,,,,,,,,,,,,,,,,,,,,,,,,,,,,,,,,,377.5361852000351,377.5361852000351,space,14.287988000025507,,,,,,,,,,,,,,,,,,,,,,,,,,,,,,,,,010,001,2023-11-21_16h21.36.433,ETproject_Chi_2023.1.1,2023.1.1,60.015688101552,
,,,,,,,,,,,,,Spring 6.jpg,这是春天吗？,是,Left,Break_material/Image/Spring 6.jpg,,,,,,,,,,,,,0,0,0,5,,,,,,,,,,,,,,,,,,,,,,,,,,,,,,,,,,,,,,,,,,,,,,,,,,,,,,,,,,,,,,,,392.62439470004756,395.8349748000037,396.6296367000323,397.84598290000577,397.84598290000577,397.84598290000577,397.84598290000577,left,0,3.5224215000052936,,,,,,,,,,,,,,,,,,,,,,,010,001,2023-11-21_16h21.36.433,ETproject_Chi_2023.1.1,2023.1.1,60.015688101552,
,,,,,,,,,,,,,Spring 1.jpg,这是春天吗？,是,Left,Break_material/Image/Spring 1.jpg,,,,,,,,,,,,,0,1,1,0,,,,,,,,,,,,,,,,,,,,,,,,,,,,,,,,,,,,,,,,,,,,,,,,,,,,,,,,,,,,,,,,401.6623836000217,405.37964070000453,405.65980270004366,407.39261170005193,407.39261170005193,407.39261170005193,407.39261170005193,left,0,2.3836737999808975,,,,,,,,,,,,,,,,,,,,,,,010,001,2023-11-21_16h21.36.433,ETproject_Chi_2023.1.1,2023.1.1,60.015688101552,
,,,,,,,,,,,,,Spring 3.jpg,这是夏天吗？,否,Right,Break_material/Image/Spring 3.jpg,,,,,,,,,,,,,0,2,2,2,,,,,,,,,,,,,,,,,,,,,,,,,,,,,,,,,,,,,,,,,,,,,,,,,,,,,,,,,,,,,,,,409.8663560000132,413.7941165000084,413.8739861000213,415.8065123000415,415.8065123000415,415.8065123000415,415.8065123000415,left,0,1.217777899990324,,,,,,,,,,,,,,,,,,,,,,,010,001,2023-11-21_16h21.36.433,ETproject_Chi_2023.1.1,2023.1.1,60.015688101552,
,,,,,,,,,,,,,Spring 4.jpg,这是秋天吗？,否,Right,Break_material/Image/Spring 4.jpg,,,,,,,,,,,,,0,3,3,3,,,,,,,,,,,,,,,,,,,,,,,,,,,,,,,,,,,,,,,,,,,,,,,,,,,,,,,,,,,,,,,,417.2726404000423,421.04243690002477,421.27142110001296,423.05415700003505,423.05415700003505,423.05415700003505,423.05415700003505,right,0,0.9622422999818809,,,,,,,,,,,,,,,,,,,,,,,010,001,2023-11-21_16h21.36.433,ETproject_Chi_2023.1.1,2023.1.1,60.015688101552,
,,,,,,,,,,,,,Spring 2.jpg,这是冬天吗？,否,Right,Break_material/Image/Spring 2.jpg,,,,,,,,,,,,,0,4,4,1,,,,,,,,,,,,,,,,,,,,,,,,,,,,,,,,,,,,,,,,,,,,,,,,,,,,,,,,,,,,,,,,424.1180740999989,428.0228393000434,428.11918790003983,430.03521280002315,430.03521280002315,430.03521280002315,430.03521280002315,right,0,0.5811564999748953,,,,,,,,,,,,,,,,,,,,,,,010,001,2023-11-21_16h21.36.433,ETproject_Chi_2023.1.1,2023.1.1,60.015688101552,
,,,,,,,,,,,,,Spring 5.jpg,这是冬天吗？,否,Right,Break_material/Image/Spring 5.jpg,,,,,,,,,,,,,0,5,5,4,,,,,,,,,,,,,,,,,,,,,,,,,,,,,,,,,,,,,,,,,,,,,,,,,,,,,,,,,,,,,,,,431.09802330000093,434.622073800012,435.10022660001414,436.6330756000243,436.6330756000243,436.6330756000243,436.6330756000243,right,0,0.5506135000032373,,,,,,,,,,,,,,,,,,,,,,,010,001,2023-11-21_16h21.36.433,ETproject_Chi_2023.1.1,2023.1.1,60.015688101552,
,,,,,,,,,,,,,,,,,,,,,,,,,,,,,,,,,,,,,,,,,,,,,,,,,,,,,,,,,,,,,,,,,,,,,,,,,,,,,,,,,,,,,,,,,,,,,,,,,,,,,,,,,,,437.2163537000306,437.2163537000306,space,5.015472999948543,,,,,,,,,,,,,,,,,,,010,001,2023-11-21_16h21.36.433,ETproject_Chi_2023.1.1,2023.1.1,60.015688101552,
60,Month,十二月,十月 ,,Hori,late,left,image/Chi_late.png,"[-0.4, 0]","[0.4, 0]",2,incongruent,,,,,,,,,,,,,,,,,,,,,,0,0,0,45,,,,,,,,,,,,,,,,,,,,,,,,,,,,,,,,,,,,,,,,,,,,,442.2797639000346,0.9995101999957114,443.280852099997,443.36430930002825,444.1640897000325,444.2640535000246,444.2640535000246,444.2640535000246,left,1,2.2323010999825783,,,,,,,,,,,,,,,,,,,,,,,,,,,,,,,,,,,,,010,001,2023-11-21_16h21.36.433,ETproject_Chi_2023.1.1,2023.1.1,60.015688101552,
1,Month,一月,四月,,Hori,early,left,image/Chi_early.png,"[-0.4, 0]","[0.4, 0]",3,congruent,,,,,,,,,,,,,,,,,,,,,,0,1,1,34,,,,,,,,,,,,,,,,,,,,,,,,,,,,,,,,,,,,,,,,,,,,,446.5270980000496,1.0111803999752738,447.5294147999957,447.61294449999696,448.4126013000496,448.51246940001147,448.51246940001147,448.51246940001147,left,1,0.863891999993939,,,,,,,,,,,,,,,,,,,,,,,,,,,,,,,,,,,,,010,001,2023-11-21_16h21.36.433,ETproject_Chi_2023.1.1,2023.1.1,60.015688101552,
18,Month,九月 ,十二月,,Hori,late,right,image/Chi_late.png,"[-0.4, 0]","[0.4, 0]",3,congruent,,,,,,,,,,,,,,,,,,,,,,0,2,2,9,,,,,,,,,,,,,,,,,,,,,,,,,,,,,,,,,,,,,,,,,,,,,449.41229450004175,1.0117211999604478,450.4117523000459,450.4952451999998,451.2950241000508,451.39487270003883,451.39487270003883,451.39487270003883,right,1,1.021927100024186,,,,,,,,,,,,,,,,,,,,,,,,,,,,,,,,,,,,,010,001,2023-11-21_16h21.36.433,ETproject_Chi_2023.1.1,2023.1.1,60.015688101552,
39,Month,十一月 ,七月,,Hori,early,right,image/Chi_early.png,"[-0.4, 0]","[0.4, 0]",4,incongruent,,,,,,,,,,,,,,,,,,,,,,0,3,3,40,,,,,,,,,,,,,,,,,,,,,,,,,,,,,,,,,,,,,,,,,,,,,452.4523460000055,0.9990332000306807,453.4608604000532,453.5440895000356,454.344037700037,454.4441192000522,454.4441192000522,454.4441192000522,right,1,0.9642584000248462,,,,,,,,,,,,,,,,,,,,,,,,,,,,,,,,,,,,,010,001,2023-11-21_16h21.36.433,ETproject_Chi_2023.1.1,2023.1.1,60.015688101552,
123,Week,星期六,星期日,,Vert,late,down,image/Chi_late.png,"[0, 0.4]","[0, -0.4]",1,congruent,,,,,,,,,,,,,,,,,,,,,,0,4,4,31,,,,,,,,,,,,,,,,,,,,,,,,,,,,,,,,,,,,,,,,,,,,,455.43884529999923,0.9991674000048079,456.443342500017,456.52648260002024,457.32624320004834,457.42620390001684,457.42620390001684,457.42620390001684,down,1,1.5828308999771252,,,,,,,,,,,,,,,,,,,,,,,,,,,,,,,,,,,,,010,001,2023-11-21_16h21.36.433,ETproject_Chi_2023.1.1,2023.1.1,60.015688101552,
29,Month,五月,九月 ,,Vert,late,down,image/Chi_late.png,"[0, 0.4]","[0, -0.4]",4,congruent,,,,,,,,,,,,,,,,,,,,,,0,5,5,21,,,,,,,,,,,,,,,,,,,,,,,,,,,,,,,,,,,,,,,,,,,,,460.0306294000475,1.014331599988509,461.0415928000002,461.1249628000078,461.9245934000355,462.02489640004933,462.02489640004933,462.02489640004933,down,1,1.0325242000399157,,,,,,,,,,,,,,,,,,,,,,,,,,,,,,,,,,,,,010,001,2023-11-21_16h21.36.433,ETproject_Chi_2023.1.1,2023.1.1,60.015688101552,
72,Month,四月,二月,,Vert,late,up,image/Chi_late.png,"[0, 0.4]","[0, -0.4]",2,incongruent,,,,,,,,,,,,,,,,,,,,,,0,6,6,41,,,,,,,,,,,,,,,,,,,,,,,,,,,,,,,,,,,,,,,,,,,,,463.0810921000084,1.015436600020621,464.0905707000056,464.17399280000245,464.97366080002394,465.0738871000358,465.0738871000358,465.0738871000358,up,1,1.390918699966278,,,,,,,,,,,,,,,,,,,,,,,,,,,,,,,,,,,,,010,001,2023-11-21_16h21.36.433,ETproject_Chi_2023.1.1,2023.1.1,60.015688101552,
39,Month,九月 ,十一月 ,,Vert,late,down,image/Chi_late.png,"[0, 0.4]","[0, -0.4]",2,congruent,,,,,,,,,,,,,,,,,,,,,,0,7,7,14,,,,,,,,,,,,,,,,,,,,,,,,,,,,,,,,,,,,,,,,,,,,,466.49535310000647,1.0153620999772102,467.5062671000487,467.58948790002614,468.38934440002777,468.4893545000232,468.4893545000232,468.4893545000232,down,1,0.9746387000195682,,,,,,,,,,,,,,,,,,,,,,,,,,,,,,,,,,,,,010,001,2023-11-21_16h21.36.433,ETproject_Chi_2023.1.1,2023.1.1,60.015688101552,
25,Month,一月,五月,,Vert,late,down,image/Chi_late.png,"[0, 0.4]","[0, -0.4]",4,congruent,,,,,,,,,,,,,,,,,,,,,,0,8,8,23,,,,,,,,,,,,,,,,,,,,,,,,,,,,,,,,,,,,,,,,,,,,,469.49470560002374,1.015126699989196,470.5051486000302,470.5884902999969,471.3882124000229,471.4882391000283,471.4882391000283,471.4882391000283,down,1,0.9201094000018202,,,,,,,,,,,,,,,,,,,,,,,,,,,,,,,,,,,,,010,001,2023-11-21_16h21.36.433,ETproject_Chi_2023.1.1,2023.1.1,60.015688101552,
43,Month,十月 ,七月,,Hori,early,right,image/Chi_early.png,"[-0.4, 0]","[0.4, 0]",3,incongruent,,,,,,,,,,,,,,,,,,,,,,0,9,9,7,,,,,,,,,,,,,,,,,,,,,,,,,,,,,,,,,,,,,,,,,,,,,472.4500518999994,1.0142626999877393,473.45423319999827,473.53762340004323,474.33717610000167,474.4374214000418,474.4374214000418,474.4374214000418,right,1,1.1943280999548733,,,,,,,,,,,,,,,,,,,,,,,,,,,,,,,,,,,,,010,001,2023-11-21_16h21.36.433,ETproject_Chi_2023.1.1,2023.1.1,60.015688101552,
11,Month,十一月 ,十二月,,Hori,early,left,image/Chi_early.png,"[-0.4, 0]","[0.4, 0]",1,congruent,,,,,,,,,,,,,,,,,,,,,,0,10,10,28,,,,,,,,,,,,,,,,,,,,,,,,,,,,,,,,,,,,,,,,,,,,,475.661508899997,1.0121852000011131,476.66994110000087,476.7533171999967,477.55287470004987,477.6528503000154,477.6528503000154,477.6528503000154,left,1,0.9070787999662571,,,,,,,,,,,,,,,,,,,,,,,,,,,,,,,,,,,,,010,001,2023-11-21_16h21.36.433,ETproject_Chi_2023.1.1,2023.1.1,60.015688101552,
142,Week,星期日,星期四,,Vert,early,down,image/Chi_early.png,"[0, 0.4]","[0, -0.4]",3,incongruent,,,,,,,,,,,,,,,,,,,,,,0,11,11,35,,,,,,,,,,,,,,,,,,,,,,,,,,,,,,,,,,,,,,,,,,,,,478.596233200049,1.0109050999744795,479.60221979999915,479.6857138000196,480.4854099000222,480.58549860003404,480.58549860003404,480.58549860003404,down,1,1.4470010000513867,,,,,,,,,,,,,,,,,,,,,,,,,,,,,,,,,,,,,010,001,2023-11-21_16h21.36.433,ETproject_Chi_2023.1.1,2023.1.1,60.015688101552,
98,Week,星期二,星期五,,Hori,early,left,image/Chi_early.png,"[-0.4, 0]","[0.4, 0]",3,congruent,,,,,,,,,,,,,,,,,,,,,,0,12,12,39,,,,,,,,,,,,,,,,,,,,,,,,,,,,,,,,,,,,,,,,,,,,,482.0559407999972,1.0149004999548197,483.06766950001474,483.1509925000137,483.95092800003476,484.050699000014,484.050699000014,484.050699000014,left,1,0.9737172999884933,,,,,,,,,,,,,,,,,,,,,,,,,,,,,,,,,,,,,010,001,2023-11-21_16h21.36.433,ETproject_Chi_2023.1.1,2023.1.1,60.015688101552,
16,Month,八月,十二月,,Hori,late,right,image/Chi_late.png,"[-0.4, 0]","[0.4, 0]",4,congruent,,,,,,,,,,,,,,,,,,,,,,0,13,13,27,,,,,,,,,,,,,,,,,,,,,,,,,,,,,,,,,,,,,,,,,,,,,485.06676700001117,1.0118368999683298,486.0665837000124,486.15021400002297,486.9497298000497,487.049814100028,487.049814100028,487.049814100028,right,1,0.8627882999717258,,,,,,,,,,,,,,,,,,,,,,,,,,,,,,,,,,,,,010,001,2023-11-21_16h21.36.433,ETproject_Chi_2023.1.1,2023.1.1,60.015688101552,
53,Month,五月,三月,,Hori,late,left,image/Chi_late.png,"[-0.4, 0]","[0.4, 0]",2,incongruent,,,,,,,,,,,,,,,,,,,,,,0,14,14,2,,,,,,,,,,,,,,,,,,,,,,,,,,,,,,,,,,,,,,,,,,,,,487.9412833000533,1.011670799984131,488.94923930004006,489.03243479999946,489.83209610002814,489.93220630002907,489.93220630002907,489.93220630002907,left,1,1.1488708999822848,,,,,,,,,,,,,,,,,,,,,,,,,,,,,,,,,,,,,010,001,2023-11-21_16h21.36.433,ETproject_Chi_2023.1.1,2023.1.1,60.015688101552,
26,Month,八月,十一月 ,,Vert,early,up,image/Chi_early.png,"[0, 0.4]","[0, -0.4]",3,congruent,,,,,,,,,,,,,,,,,,,,,,0,15,15,44,,,,,,,,,,,,,,,,,,,,,,,,,,,,,,,,,,,,,,,,,,,,,491.11083590000635,1.0105467999819666,492.11483269999735,492.1979937000433,492.99783930002013,493.0977129000239,493.0977129000239,493.0977129000239,up,1,0.8626837999909185,,,,,,,,,,,,,,,,,,,,,,,,,,,,,,,,,,,,,010,001,2023-11-21_16h21.36.433,ETproject_Chi_2023.1.1,2023.1.1,60.015688101552,
82,Month,六月,五月,,Vert,late,up,image/Chi_late.png,"[0, 0.4]","[0, -0.4]",1,incongruent,,,,,,,,,,,,,,,,,,,,,,0,16,16,33,,,,,,,,,,,,,,,,,,,,,,,,,,,,,,,,,,,,,,,,,,,,,493.9935973000247,1.0117461000336334,494.9971890000161,495.08049280004343,495.8801388000138,495.98015250003664,495.98015250003664,495.98015250003664,up,1,2.421326700015925,,,,,,,,,,,,,,,,,,,,,,,,,,,,,,,,,,,,,010,001,2023-11-21_16h21.36.433,ETproject_Chi_2023.1.1,2023.1.1,60.015688101552,
134,Week,星期五,星期三 ,,Hori,late,left,image/Chi_late.png,"[-0.4, 0]","[0.4, 0]",2,incongruent,,,,,,,,,,,,,,,,,,,,,,0,17,17,47,,,,,,,,,,,,,,,,,,,,,,,,,,,,,,,,,,,,,,,,,,,,,498.4365699000191,1.0126348999910988,499.44555330002913,499.5289584000129,500.32869070000015,500.4287011999986,500.4287011999986,500.4287011999986,left,1,0.987631700001657,,,,,,,,,,,,,,,,,,,,,,,,,,,,,,,,,,,,,010,001,2023-11-21_16h21.36.433,ETproject_Chi_2023.1.1,2023.1.1,60.015688101552,
108,Week,星期五,星期六,,Hori,late,right,image/Chi_late.png,"[-0.4, 0]","[0.4, 0]",1,congruent,,,,,,,,,,,,,,,,,,,,,,0,18,18,1,,,,,,,,,,,,,,,,,,,,,,,,,,,,,,,,,,,,,,,,,,,,,501.448928400001,0.9991513999993913,502.4613351000007,502.5447455000249,503.3443497000262,503.4444664000184,503.4444664000184,503.4444664000184,right,1,1.3483721999800764,,,,,,,,,,,,,,,,,,,,,,,,,,,,,,,,,,,,,010,001,2023-11-21_16h21.36.433,ETproject_Chi_2023.1.1,2023.1.1,60.015688101552,
65,Month,七月,五月,,Vert,early,down,image/Chi_early.png,"[0, 0.4]","[0, -0.4]",2,incongruent,,,,,,,,,,,,,,,,,,,,,,0,19,19,11,,,,,,,,,,,,,,,,,,,,,,,,,,,,,,,,,,,,,,,,,,,,,505.82143120002,1.0147095000138506,506.8267105999985,506.9098856000346,507.70963600004325,507.809628100018,507.809628100018,507.809628100018,down,1,1.7266426000278443,,,,,,,,,,,,,,,,,,,,,,,,,,,,,,,,,,,,,010,001,2023-11-21_16h21.36.433,ETproject_Chi_2023.1.1,2023.1.1,60.015688101552,
7,Month,七月,十一月 ,,Hori,early,left,image/Chi_early.png,"[-0.4, 0]","[0.4, 0]",4,congruent,,,,,,,,,,,,,,,,,,,,,,0,20,20,49,,,,,,,,,,,,,,,,,,,,,,,,,,,,,,,,,,,,,,,,,,,,,509.5655856000376,1.0117698999820277,510.5754501000047,510.6586186000495,511.45836640003836,511.55844039999647,511.55844039999647,511.55844039999647,left,1,1.3535960000008345,,,,,,,,,,,,,,,,,,,,,,,,,,,,,,,,,,,,,010,001,2023-11-21_16h21.36.433,ETproject_Chi_2023.1.1,2023.1.1,60.015688101552,
23,Month,一月,二月 ,,Vert,early,up,image/Chi_early.png,"[0, 0.4]","[0, -0.4]",1,congruent,,,,,,,,,,,,,,,,,,,,,,0,21,21,30,,,,,,,,,,,,,,,,,,,,,,,,,,,,,,,,,,,,,,,,,,,,,512.9515524000162,1.0106325999950059,513.9574999000179,514.0408754000091,514.8405273000244,514.9406162000378,514.9406162000378,514.9406162000378,up,1,0.9473965000361204,,,,,,,,,,,,,,,,,,,,,,,,,,,,,,,,,,,,,010,001,2023-11-21_16h21.36.433,ETproject_Chi_2023.1.1,2023.1.1,60.015688101552,
99,Week,星期三 ,星期五,,Hori,early,left,image/Chi_early.png,"[-0.4, 0]","[0.4, 0]",2,congruent,,,,,,,,,,,,,,,,,,,,,,0,22,22,3,,,,,,,,,,,,,,,,,,,,,,,,,,,,,,,,,,,,,,,,,,,,,515.9153956000227,1.011342899990268,516.9232636000379,517.0068973000161,517.8062822000356,517.9065376000362,517.9065376000362,517.9065376000362,left,1,0.8940187999978662,,,,,,,,,,,,,,,,,,,,,,,,,,,,,,,,,,,,,010,001,2023-11-21_16h21.36.433,ETproject_Chi_2023.1.1,2023.1.1,60.015688101552,
68,Month,十月 ,八月,,Vert,early,down,image/Chi_early.png,"[0, 0.4]","[0, -0.4]",2,incongruent,,,,,,,,,,,,,,,,,,,,,,0,23,23,48,,,,,,,,,,,,,,,,,,,,,,,,,,,,,,,,,,,,,,,,,,,,,518.8317184000043,1.0111850000103004,519.838905600016,519.9222755000228,520.7220394000178,520.8219008000451,520.8219008000451,520.8219008000451,down,1,1.2101499999989755,,,,,,,,,,,,,,,,,,,,,,,,,,,,,,,,,,,,,010,001,2023-11-21_16h21.36.433,ETproject_Chi_2023.1.1,2023.1.1,60.015688101552,
61,Month,十月 ,七月,,Vert,early,down,image/Chi_early.png,"[0, 0.4]","[0, -0.4]",3,incongruent,,,,,,,,,,,,,,,,,,,,,,0,24,24,16,,,,,,,,,,,,,,,,,,,,,,,,,,,,,,,,,,,,,,,,,,,,,522.0629098000354,1.0109279999742284,523.0711093000136,523.1545947000268,523.9542259000009,524.0542469000211,524.0542469000211,524.0542469000211,down,1,1.0736575000337325,,,,,,,,,,,,,,,,,,,,,,,,,,,,,,,,,,,,,010,001,2023-11-21_16h21.36.433,ETproject_Chi_2023.1.1,2023.1.1,60.015688101552,
141,Week,星期六,星期三 ,,Vert,early,down,image/Chi_early.png,"[0, 0.4]","[0, -0.4]",3,incongruent,,,,,,,,,,,,,,,,,,,,,,0,25,25,29,,,,,,,,,,,,,,,,,,,,,,,,,,,,,,,,,,,,,,,,,,,,,525.1605245000101,1.0154959000064991,526.1702023000107,526.2536489000195,527.0532347999979,527.1535687000141,527.1535687000141,527.1535687000141,down,1,1.2469667000113986,,,,,,,,,,,,,,,,,,,,,,,,,,,,,,,,,,,,,010,001,2023-11-21_16h21.36.433,ETproject_Chi_2023.1.1,2023.1.1,60.015688101552,
13,Month,二月,三月,,Hori,late,right,image/Chi_late.png,"[-0.4, 0]","[0.4, 0]",1,congruent,,,,,,,,,,,,,,,,,,,,,,0,26,26,42,,,,,,,,,,,,,,,,,,,,,,,,,,,,,,,,,,,,,,,,,,,,,528.4314739000401,0.9991441000020131,529.4357788000489,529.5192299000337,530.3187502000364,530.4187932000495,530.4187932000495,530.4187932000495,right,1,1.5105642999405973,,,,,,,,,,,,,,,,,,,,,,,,,,,,,,,,,,,,,010,001,2023-11-21_16h21.36.433,ETproject_Chi_2023.1.1,2023.1.1,60.015688101552,
84,Month,八月,七月,,Vert,late,up,image/Chi_late.png,"[0, 0.4]","[0, -0.4]",1,incongruent,,,,,,,,,,,,,,,,,,,,,,0,27,27,18,,,,,,,,,,,,,,,,,,,,,,,,,,,,,,,,,,,,,,,,,,,,,531.9599919000175,1.011574300006032,532.9680875000195,533.0513833000441,533.8509865000378,533.9509861000115,533.9509861000115,533.9509861000115,up,1,2.3694888000027277,,,,,,,,,,,,,,,,,,,,,,,,,,,,,,,,,,,,,010,001,2023-11-21_16h21.36.433,ETproject_Chi_2023.1.1,2023.1.1,60.015688101552,
21,Month,十月 ,十一月 ,,Hori,late,right,image/Chi_late.png,"[-0.4, 0]","[0.4, 0]",1,congruent,,,,,,,,,,,,,,,,,,,,,,0,28,28,5,,,,,,,,,,,,,,,,,,,,,,,,,,,,,,,,,,,,,,,,,,,,,536.3595196999959,1.0102998000220396,537.3666380000068,537.4499387000105,538.2495394000434,538.3497119000531,538.3497119000531,538.3497119000531,right,1,1.4660404999740422,,,,,,,,,,,,,,,,,,,,,,,,,,,,,,,,,,,,,010,001,2023-11-21_16h21.36.433,ETproject_Chi_2023.1.1,2023.1.1,60.015688101552,
4,Month,四月,六月,,Hori,early,left,image/Chi_early.png,"[-0.4, 0]","[0.4, 0]",2,congruent,,,,,,,,,,,,,,,,,,,,,,0,29,29,20,,,,,,,,,,,,,,,,,,,,,,,,,,,,,,,,,,,,,,,,,,,,,539.8463420000044,1.0132301999838091,540.8486976000131,540.9320731000043,541.7316944000195,541.8316902000224,541.8316902000224,541.8316902000224,left,1,0.9684244000236504,,,,,,,,,,,,,,,,,,,,,,,,,,,,,,,,,,,,,010,001,2023-11-21_16h21.36.433,ETproject_Chi_2023.1.1,2023.1.1,60.015688101552,
46,Month,八月,六月,,Hori,early,right,image/Chi_early.png,"[-0.4, 0]","[0.4, 0]",2,incongruent,,,,,,,,,,,,,,,,,,,,,,0,30,30,6,,,,,,,,,,,,,,,,,,,,,,,,,,,,,,,,,,,,,,,,,,,,,542.8394728000276,1.011180899979081,543.8476583000156,543.9310191000113,544.7307442000019,544.8307498000213,544.8307498000213,544.8307498000213,right,1,1.680893799988553,,,,,,,,,,,,,,,,,,,,,,,,,,,,,,,,,,,,,010,001,2023-11-21_16h21.36.433,ETproject_Chi_2023.1.1,2023.1.1,60.015688101552,
126,Week,星期四,星期二,,Hori,early,right,image/Chi_early.png,"[-0.4, 0]","[0.4, 0]",2,incongruent,,,,,,,,,,,,,,,,,,,,,,0,31,31,24,,,,,,,,,,,,,,,,,,,,,,,,,,,,,,,,,,,,,,,,,,,,,546.5395894999965,1.0119654000154696,547.5465660000336,547.6298135000397,548.4295112999971,548.529557300033,548.529557300033,548.529557300033,right,1,0.951327399990987,,,,,,,,,,,,,,,,,,,,,,,,,,,,,,,,,,,,,010,001,2023-11-21_16h21.36.433,ETproject_Chi_2023.1.1,2023.1.1,60.015688101552,
2,Month,二月,五月,,Hori,early,left,image/Chi_early.png,"[-0.4, 0]","[0.4, 0]",3,congruent,,,,,,,,,,,,,,,,,,,,,,0,32,32,36,,,,,,,,,,,,,,,,,,,,,,,,,,,,,,,,,,,,,,,,,,,,,549.5214034000528,1.0103971000062302,550.528809600044,550.6121182000497,551.4118544000085,551.5118851000443,551.5118851000443,551.5118851000443,left,1,0.856067799963057,,,,,,,,,,,,,,,,,,,,,,,,,,,,,,,,,,,,,010,001,2023-11-21_16h21.36.433,ETproject_Chi_2023.1.1,2023.1.1,60.015688101552,
6,Month,六月,九月 ,,Hori,early,left,image/Chi_early.png,"[-0.4, 0]","[0.4, 0]",3,congruent,,,,,,,,,,,,,,,,,,,,,,0,33,33,25,,,,,,,,,,,,,,,,,,,,,,,,,,,,,,,,,,,,,,,,,,,,,552.4029933999991,1.0129802000010386,553.411140500044,553.4947088000481,554.2942925000098,554.3944208000321,554.3944208000321,554.3944208000321,left,1,1.0771099000121467,,,,,,,,,,,,,,,,,,,,,,,,,,,,,,,,,,,,,010,001,2023-11-21_16h21.36.433,ETproject_Chi_2023.1.1,2023.1.1,60.015688101552,
16,Month,七月,十月 ,,Hori,late,right,image/Chi_late.png,"[-0.4, 0]","[0.4, 0]",3,congruent,,,,,,,,,,,,,,,,,,,,,,0,34,34,43,,,,,,,,,,,,,,,,,,,,,,,,,,,,,,,,,,,,,,,,,,,,,555.5072300000465,1.0109420999651775,556.5101569000399,556.5935653000488,557.3932446000399,557.4932279000059,557.4932279000059,557.4932279000059,right,1,0.930761200026609,,,,,,,,,,,,,,,,,,,,,,,,,,,,,,,,,,,,,010,001,2023-11-21_16h21.36.433,ETproject_Chi_2023.1.1,2023.1.1,60.015688101552,
21,Month,五月,九月 ,,Vert,early,up,image/Chi_early.png,"[0, 0.4]","[0, -0.4]",4,congruent,,,,,,,,,,,,,,,,,,,,,,0,35,35,46,,,,,,,,,,,,,,,,,,,,,,,,,,,,,,,,,,,,,,,,,,,,,558.4548926000134,1.0109771999996156,559.4591345000081,559.5425573000102,560.3421826999984,560.4422890000278,560.4422890000278,560.4422890000278,up,1,1.0377308999886736,,,,,,,,,,,,,,,,,,,,,,,,,,,,,,,,,,,,,010,001,2023-11-21_16h21.36.433,ETproject_Chi_2023.1.1,2023.1.1,60.015688101552,
42,Month,九月 ,十月 ,,Vert,late,down,image/Chi_late.png,"[0, 0.4]","[0, -0.4]",1,congruent,,,,,,,,,,,,,,,,,,,,,,0,36,36,0,,,,,,,,,,,,,,,,,,,,,,,,,,,,,,,,,,,,,,,,,,,,,561.5229078000411,1.011654699977953,562.5250442000106,562.6081883000443,563.4080443000421,563.507970900042,563.507970900042,563.507970900042,down,1,1.0283921999507584,,,,,,,,,,,,,,,,,,,,,,,,,,,,,,,,,,,,,010,001,2023-11-21_16h21.36.433,ETproject_Chi_2023.1.1,2023.1.1,60.015688101552,
14,Month,四月,六月,,Hori,late,right,image/Chi_late.png,"[-0.4, 0]","[0.4, 0]",2,congruent,,,,,,,,,,,,,,,,,,,,,,0,37,37,26,,,,,,,,,,,,,,,,,,,,,,,,,,,,,,,,,,,,,,,,,,,,,564.5635395999998,1.0135425999760628,565.5738402000279,565.6572312000208,566.4570466000005,566.5571281000157,566.5571281000157,566.5571281000157,right,1,1.4992426999961026,,,,,,,,,,,,,,,,,,,,,,,,,,,,,,,,,,,,,010,001,2023-11-21_16h21.36.433,ETproject_Chi_2023.1.1,2023.1.1,60.015688101552,
57,Month,三月,二月,,Hori,late,left,image/Chi_late.png,"[-0.4, 0]","[0.4, 0]",1,incongruent,,,,,,,,,,,,,,,,,,,,,,0,38,38,13,,,,,,,,,,,,,,,,,,,,,,,,,,,,,,,,,,,,,,,,,,,,,568.0795419000206,1.0149612000095658,569.0893833000446,569.1727068000473,569.9724878999987,570.0724983999971,570.0724983999971,570.0724983999971,left,1,1.3992433000239544,,,,,,,,,,,,,,,,,,,,,,,,,,,,,,,,,,,,,010,001,2023-11-21_16h21.36.433,ETproject_Chi_2023.1.1,2023.1.1,60.015688101552,
70,Month,十月 ,七月,,Vert,late,up,image/Chi_late.png,"[0, 0.4]","[0, -0.4]",3,incongruent,,,,,,,,,,,,,,,,,,,,,,0,39,39,19,,,,,,,,,,,,,,,,,,,,,,,,,,,,,,,,,,,,,,,,,,,,,571.498427500017,1.0119924999889918,572.504917800019,572.5881776000024,573.3881918000407,573.4880021000281,573.4880021000281,573.4880021000281,up,1,2.14484409999568,,,,,,,,,,,,,,,,,,,,,,,,,,,,,,,,,,,,,010,001,2023-11-21_16h21.36.433,ETproject_Chi_2023.1.1,2023.1.1,60.015688101552,
114,Week,星期四,星期五,,Vert,early,up,image/Chi_early.png,"[0, 0.4]","[0, -0.4]",1,congruent,,,,,,,,,,,,,,,,,,,,,,0,40,40,10,,,,,,,,,,,,,,,,,,,,,,,,,,,,,,,,,,,,,,,,,,,,,575.6640958000207,1.01416479999898,576.6702393000014,576.7536995999981,577.5533186999965,577.6532700000098,577.6532700000098,577.6532700000098,up,1,1.7870187000371516,,,,,,,,,,,,,,,,,,,,,,,,,,,,,,,,,,,,,010,001,2023-11-21_16h21.36.433,ETproject_Chi_2023.1.1,2023.1.1,60.015688101552,
55,Month,四月,一月,,Vert,early,down,image/Chi_early.png,"[0, 0.4]","[0, -0.4]",3,incongruent,,,,,,,,,,,,,,,,,,,,,,0,41,41,22,,,,,,,,,,,,,,,,,,,,,,,,,,,,,,,,,,,,,,,,,,,,,579.4775443000253,1.0123145999968983,580.4858690000256,580.5690242000273,581.3686733000213,581.4686948000453,581.4686948000453,581.4686948000453,down,1,1.1715191999683157,,,,,,,,,,,,,,,,,,,,,,,,,,,,,,,,,,,,,010,001,2023-11-21_16h21.36.433,ETproject_Chi_2023.1.1,2023.1.1,60.015688101552,
102,Week,星期六,星期日,,Hori,early,left,image/Chi_early.png,"[-0.4, 0]","[0.4, 0]",1,congruent,,,,,,,,,,,,,,,,,,,,,,0,42,42,15,,,,,,,,,,,,,,,,,,,,,,,,,,,,,,,,,,,,,,,,,,,,,582.6720024000388,0.9991496999864466,583.6849017000059,583.7679185000015,584.5675935000181,584.6676848000498,584.6676848000498,584.6676848000498,left,1,1.7250335999997333,,,,,,,,,,,,,,,,,,,,,,,,,,,,,,,,,,,,,010,001,2023-11-21_16h21.36.433,ETproject_Chi_2023.1.1,2023.1.1,60.015688101552,
48,Month,十月 ,八月,,Hori,early,right,image/Chi_early.png,"[-0.4, 0]","[0.4, 0]",2,incongruent,,,,,,,,,,,,,,,,,,,,,,0,43,43,32,,,,,,,,,,,,,,,,,,,,,,,,,,,,,,,,,,,,,,,,,,,,,587.4216451999964,1.0153954999987036,588.4333267000038,588.5166087000398,589.3161835000501,589.4160672000144,589.4160672000144,589.4160672000144,right,1,1.1842170000309125,,,,,,,,,,,,,,,,,,,,,,,,,,,,,,,,,,,,,010,001,2023-11-21_16h21.36.433,ETproject_Chi_2023.1.1,2023.1.1,60.015688101552,
10,Month,二月,六月,,Hori,late,right,image/Chi_late.png,"[-0.4, 0]","[0.4, 0]",4,congruent,,,,,,,,,,,,,,,,,,,,,,0,44,44,37,,,,,,,,,,,,,,,,,,,,,,,,,,,,,,,,,,,,,,,,,,,,,590.647308900021,1.0124899999937043,591.6487812999985,591.7319902000017,592.5316287000314,592.631823200034,592.631823200034,592.631823200034,right,1,1.2400439999764785,,,,,,,,,,,,,,,,,,,,,,,,,,,,,,,,,,,,,010,001,2023-11-21_16h21.36.433,ETproject_Chi_2023.1.1,2023.1.1,60.015688101552,
126,Week,星期五,星期二,,Hori,early,right,image/Chi_early.png,"[-0.4, 0]","[0.4, 0]",3,incongruent,,,,,,,,,,,,,,,,,,,,,,0,45,45,17,,,,,,,,,,,,,,,,,,,,,,,,,,,,,,,,,,,,,,,,,,,,,593.9133063000045,1.0105578000075184,594.9142035000259,594.9975319000077,595.7974653000128,595.8971249000169,595.8971249000169,595.8971249000169,right,1,1.1351029999786988,,,,,,,,,,,,,,,,,,,,,,,,,,,,,,,,,,,,,010,001,2023-11-21_16h21.36.433,ETproject_Chi_2023.1.1,2023.1.1,60.015688101552,
111,Week,星期一,星期三 ,,Vert,early,up,image/Chi_early.png,"[0, 0.4]","[0, -0.4]",2,congruent,,,,,,,,,,,,,,,,,,,,,,0,46,46,8,,,,,,,,,,,,,,,,,,,,,,,,,,,,,,,,,,,,,,,,,,,,,597.0759458000539,1.0135827000485733,598.0798318000161,598.1630697000073,598.9627859000466,599.0630125000025,599.0630125000025,599.0630125000025,up,1,0.7768309999955818,,,,,,,,,,,,,,,,,,,,,,,,,,,,,,,,,,,,,010,001,2023-11-21_16h21.36.433,ETproject_Chi_2023.1.1,2023.1.1,60.015688101552,
59,Month,五月,四月,,Hori,late,left,image/Chi_late.png,"[-0.4, 0]","[0.4, 0]",1,incongruent,,,,,,,,,,,,,,,,,,,,,,0,47,47,12,,,,,,,,,,,,,,,,,,,,,,,,,,,,,,,,,,,,,,,,,,,,,599.8707835000241,1.015208300028462,600.8788444000529,600.9623867000337,601.7619150000392,601.861928600003,601.861928600003,601.861928600003,left,1,0.9389552000211552,,,,,,,,,,,,,,,,,,,,,,,,,,,,,,,,,,,,,010,001,2023-11-21_16h21.36.433,ETproject_Chi_2023.1.1,2023.1.1,60.015688101552,
34,Month,四月,六月,,Vert,late,down,image/Chi_late.png,"[0, 0.4]","[0, -0.4]",2,congruent,,,,,,,,,,,,,,,,,,,,,,0,48,48,38,,,,,,,,,,,,,,,,,,,,,,,,,,,,,,,,,,,,,,,,,,,,,602.8338962999987,0.9990891999914311,603.8446408000309,603.9279356000479,604.7277556000045,604.8277780000353,604.8277780000353,604.8277780000353,down,1,1.7724125999957323,,,,,,,,,,,,,,,,,,,,,,,,,,,,,,,,,,,,,010,001,2023-11-21_16h21.36.433,ETproject_Chi_2023.1.1,2023.1.1,60.015688101552,
57,Month,六月,三月,,Vert,early,down,image/Chi_early.png,"[0, 0.4]","[0, -0.4]",3,incongruent,,,,,,,,,,,,,,,,,,,,,,0,49,49,4,,,,,,,,,,,,,,,,,,,,,,,,,,,,,,,,,,,,,,,,,,,,,606.6380724000046,1.0130857999902219,607.6433228999958,607.7268464000081,608.5265079000383,608.6263884000364,608.6263884000364,608.6263884000364,down,1,1.4779398000100628,,,,,,,,,,,,,,,,,,,,,,,,,,,,,,,,,,,,,010,001,2023-11-21_16h21.36.433,ETproject_Chi_2023.1.1,2023.1.1,60.015688101552,
,,,,,,,,,,,,,,,,,,,,,,,,,,,,,,,,,,,,,,,,,,,,,,,,,,,,,,,,,,,,,,,,,,,,,,,,,,,,,,,,,,,,,,,,,,,,,,,,,,,,,,,,,,,,,,,610.1261952000204,610.1261952000204,space,6.098252499999944,,,,,,,,,,,,,,,010,001,2023-11-21_16h21.36.433,ETproject_Chi_2023.1.1,2023.1.1,60.015688101552,
,,,,,,,,,,,,,Spring 6.jpg,这是春天吗？,是,Left,Break_material/Image/Spring 6.jpg,,,,,,,,,,,,,,,,,,,,,0,0,0,5,,,,,,,,,,,,,,,,,,,,,,,,,,,,,,,,,,,,,,,,,,,,,,,,,,,,,,,,617.0534131000168,620.2442871000385,621.0557186000515,622.2551638000295,622.2551638000295,622.2551638000295,622.2551638000295,left,0,0.6819696000311524,,,,,,,,,,,,,,,,,,,,,,,010,001,2023-11-21_16h21.36.433,ETproject_Chi_2023.1.1,2023.1.1,60.015688101552,
,,,,,,,,,,,,,Spring 2.jpg,这是冬天吗？,否,Right,Break_material/Image/Spring 2.jpg,,,,,,,,,,,,,,,,,,,,,0,1,1,1,,,,,,,,,,,,,,,,,,,,,,,,,,,,,,,,,,,,,,,,,,,,,,,,,,,,,,,,623.2224299000227,626.9408295000321,627.2202247999958,628.9530374000315,628.9530374000315,628.9530374000315,628.9530374000315,right,0,1.0964899999671616,,,,,,,,,,,,,,,,,,,,,,,010,001,2023-11-21_16h21.36.433,ETproject_Chi_2023.1.1,2023.1.1,60.015688101552,
,,,,,,,,,,,,,Spring 3.jpg,这是夏天吗？,否,Right,Break_material/Image/Spring 3.jpg,,,,,,,,,,,,,,,,,,,,,0,2,2,2,,,,,,,,,,,,,,,,,,,,,,,,,,,,,,,,,,,,,,,,,,,,,,,,,,,,,,,,630.1348909000517,634.0551825000439,634.1347393000033,636.0677416000399,636.0677416000399,636.0677416000399,636.0677416000399,left,0,0.7160072000115179,,,,,,,,,,,,,,,,,,,,,,,010,001,2023-11-21_16h21.36.433,ETproject_Chi_2023.1.1,2023.1.1,60.015688101552,
,,,,,,,,,,,,,Spring 5.jpg,这是冬天吗？,否,Right,Break_material/Image/Spring 5.jpg,,,,,,,,,,,,,,,,,,,,,0,3,3,4,,,,,,,,,,,,,,,,,,,,,,,,,,,,,,,,,,,,,,,,,,,,,,,,,,,,,,,,637.2582644000067,640.7873650999973,641.2659553000121,642.7988303000457,642.7988303000457,642.7988303000457,642.7988303000457,right,0,0.5615508999908343,,,,,,,,,,,,,,,,,,,,,,,010,001,2023-11-21_16h21.36.433,ETproject_Chi_2023.1.1,2023.1.1,60.015688101552,
,,,,,,,,,,,,,Spring 1.jpg,这是春天吗？,是,Left,Break_material/Image/Spring 1.jpg,,,,,,,,,,,,,,,,,,,,,0,4,4,0,,,,,,,,,,,,,,,,,,,,,,,,,,,,,,,,,,,,,,,,,,,,,,,,,,,,,,,,643.593687500048,647.3671266000019,647.5970272000413,649.3796057000291,649.3796057000291,649.3796057000291,649.3796057000291,left,0,1.0369300000020303,,,,,,,,,,,,,,,,,,,,,,,010,001,2023-11-21_16h21.36.433,ETproject_Chi_2023.1.1,2023.1.1,60.015688101552,
,,,,,,,,,,,,,Spring 4.jpg,这是秋天吗？,否,Right,Break_material/Image/Spring 4.jpg,,,,,,,,,,,,,,,,,,,,,0,5,5,3,,,,,,,,,,,,,,,,,,,,,,,,,,,,,,,,,,,,,,,,,,,,,,,,,,,,,,,,650.6500728999963,654.4318190000486,654.644488800026,656.4441195999971,656.4441195999971,656.4441195999971,656.4441195999971,right,0,0.34046989999478683,,,,,,,,,,,,,,,,,,,,,,,010,001,2023-11-21_16h21.36.433,ETproject_Chi_2023.1.1,2023.1.1,60.015688101552,
,,,,,,,,,,,,,,,,,,,,,,,,,,,,,,,,,,,,,,,,,,,,,,,,,,,,,,,,,,,,,,,,,,,,,,,,,,,,,,,,,,,,,,,,,,,,,,,,,,,,,,,,,,,,,,,,,,,656.8106181000476,656.8106181000476,space,6.82994259998668,,,,,,,,,,,010,001,2023-11-21_16h21.36.433,ETproject_Chi_2023.1.1,2023.1.1,60.015688101552,
122,Week,星期五,星期日,,Vert,late,down,image/Chi_late.png,"[0, 0.4]","[0, -0.4]",2,congruent,,,,,,,,,,,,,,,,,,,,,,,,,,,,,,0,0,0,40,,,,,,,,,,,,,,,,,,,,,,,,,,,,,,,,,,,,,663.678975100047,0.9992129000020213,664.6912337000249,664.7578345000511,665.5576857000124,665.6577279000194,665.6577279000194,665.6577279000194,down,1,1.1988539000158198,,,,,,,,,,,,,,,,,,,,,,,,,,,,,,,,,,,,,010,001,2023-11-21_16h21.36.433,ETproject_Chi_2023.1.1,2023.1.1,60.015688101552,
63,Month,十一月 ,七月,,Vert,late,up,image/Chi_late.png,"[0, 0.4]","[0, -0.4]",4,incongruent,,,,,,,,,,,,,,,,,,,,,,,,,,,,,,0,1,1,3,,,,,,,,,,,,,,,,,,,,,,,,,,,,,,,,,,,,,666.8848606999964,1.0097696000011638,667.8902178000426,667.9736404000432,668.7732968000346,668.8733724000049,668.8733724000049,668.8733724000049,up,1,1.0142080000368878,,,,,,,,,,,,,,,,,,,,,,,,,,,,,,,,,,,,,010,001,2023-11-21_16h21.36.433,ETproject_Chi_2023.1.1,2023.1.1,60.015688101552,
61,Month,七月,六月,,Hori,late,left,image/Chi_late.png,"[-0.4, 0]","[0.4, 0]",1,incongruent,,,,,,,,,,,,,,,,,,,,,,,,,,,,,,0,2,2,17,,,,,,,,,,,,,,,,,,,,,,,,,,,,,,,,,,,,,669.9138353000162,1.0123998000053689,670.9225326000014,671.0059897000319,671.8056905000121,671.9056059000432,671.9056059000432,671.9056059000432,left,1,1.2226175999967381,,,,,,,,,,,,,,,,,,,,,,,,,,,,,,,,,,,,,010,001,2023-11-21_16h21.36.433,ETproject_Chi_2023.1.1,2023.1.1,60.015688101552,
55,Month,七月,五月,,Hori,late,left,image/Chi_late.png,"[-0.4, 0]","[0.4, 0]",2,incongruent,,,,,,,,,,,,,,,,,,,,,,,,,,,,,,0,3,3,11,,,,,,,,,,,,,,,,,,,,,,,,,,,,,,,,,,,,,673.161505200027,1.0120770000503398,674.1715275000315,674.254876400053,675.0544728000532,675.1544866000186,675.1544866000186,675.1544866000186,left,1,1.3250655999872833,,,,,,,,,,,,,,,,,,,,,,,,,,,,,,,,,,,,,010,001,2023-11-21_16h21.36.433,ETproject_Chi_2023.1.1,2023.1.1,60.015688101552,
118,Week,星期一,星期三 ,,Vert,late,down,image/Chi_late.png,"[0, 0.4]","[0, -0.4]",2,congruent,,,,,,,,,,,,,,,,,,,,,,,,,,,,,,0,4,4,43,,,,,,,,,,,,,,,,,,,,,,,,,,,,,,,,,,,,,676.5152873000479,1.0113593999994919,677.5203823000193,677.6038029000047,678.4035231000162,678.5033307000413,678.5033307000413,678.5033307000413,down,1,1.320285999972839,,,,,,,,,,,,,,,,,,,,,,,,,,,,,,,,,,,,,010,001,2023-11-21_16h21.36.433,ETproject_Chi_2023.1.1,2023.1.1,60.015688101552,
136,Week,星期六,星期五,,Hori,late,left,image/Chi_late.png,"[-0.4, 0]","[0.4, 0]",1,incongruent,,,,,,,,,,,,,,,,,,,,,,,,,,,,,,0,5,5,13,,,,,,,,,,,,,,,,,,,,,,,,,,,,,,,,,,,,,679.8624297000351,1.011541300045792,680.8692328000325,680.9525096000289,681.7523629000061,681.8522237000288,681.8522237000288,681.8522237000288,left,1,1.3330375999794342,,,,,,,,,,,,,,,,,,,,,,,,,,,,,,,,,,,,,010,001,2023-11-21_16h21.36.433,ETproject_Chi_2023.1.1,2023.1.1,60.015688101552,
31,Month,七月,十一月 ,,Vert,late,down,image/Chi_late.png,"[0, 0.4]","[0, -0.4]",4,congruent,,,,,,,,,,,,,,,,,,,,,,,,,,,,,,0,6,6,6,,,,,,,,,,,,,,,,,,,,,,,,,,,,,,,,,,,,,683.2094113000203,1.0120789000065997,684.2180672000395,684.3016416000319,685.1011218000203,685.2010946000228,685.2010946000228,685.2010946000228,down,1,0.927212199952919,,,,,,,,,,,,,,,,,,,,,,,,,,,,,,,,,,,,,010,001,2023-11-21_16h21.36.433,ETproject_Chi_2023.1.1,2023.1.1,60.015688101552,
47,Month,九月 ,七月,,Hori,early,right,image/Chi_early.png,"[-0.4, 0]","[0.4, 0]",2,incongruent,,,,,,,,,,,,,,,,,,,,,,,,,,,,,,0,7,7,23,,,,,,,,,,,,,,,,,,,,,,,,,,,,,,,,,,,,,686.1653162000002,1.0115710999816656,687.1670859000296,687.2505032000481,688.0501033000182,688.1501736000064,688.1501736000064,688.1501736000064,right,1,0.8827282999991439,,,,,,,,,,,,,,,,,,,,,,,,,,,,,,,,,,,,,010,001,2023-11-21_16h21.36.433,ETproject_Chi_2023.1.1,2023.1.1,60.015688101552,
79,Month,十一月 ,九月 ,,Vert,late,up,image/Chi_late.png,"[0, 0.4]","[0, -0.4]",2,incongruent,,,,,,,,,,,,,,,,,,,,,,,,,,,,,,0,8,8,0,,,,,,,,,,,,,,,,,,,,,,,,,,,,,,,,,,,,,689.0609733000165,1.0111482999636792,690.0660518000368,690.1495244000107,690.9492433000123,691.0491416000295,691.0491416000295,691.0491416000295,up,1,1.0625316000077873,,,,,,,,,,,,,,,,,,,,,,,,,,,,,,,,,,,,,010,001,2023-11-21_16h21.36.433,ETproject_Chi_2023.1.1,2023.1.1,60.015688101552,
30,Month,三月,六月,,Vert,late,down,image/Chi_late.png,"[0, 0.4]","[0, -0.4]",3,congruent,,,,,,,,,,,,,,,,,,,,,,,,,,,,,,0,9,9,14,,,,,,,,,,,,,,,,,,,,,,,,,,,,,,,,,,,,,692.1460060000536,1.0119526000344194,693.1486061000032,693.2318702000193,694.0315727000125,694.1315920000197,694.1315920000197,694.1315920000197,down,1,1.4199488000012934,,,,,,,,,,,,,,,,,,,,,,,,,,,,,,,,,,,,,010,001,2023-11-21_16h21.36.433,ETproject_Chi_2023.1.1,2023.1.1,60.015688101552,
47,Month,五月,二月,,Hori,late,left,image/Chi_late.png,"[-0.4, 0]","[0.4, 0]",3,incongruent,,,,,,,,,,,,,,,,,,,,,,,,,,,,,,0,10,10,10,,,,,,,,,,,,,,,,,,,,,,,,,,,,,,,,,,,,,696.5852584000095,1.0152779999771155,697.5971103000338,697.6803431000444,698.4801776000531,698.5801422000513,698.5801422000513,698.5801422000513,left,1,0.8353015000466257,,,,,,,,,,,,,,,,,,,,,,,,,,,,,,,,,,,,,010,001,2023-11-21_16h21.36.433,ETproject_Chi_2023.1.1,2023.1.1,60.015688101552,
76,Month,十一月 ,十月 ,,Vert,early,down,image/Chi_early.png,"[0, 0.4]","[0, -0.4]",1,incongruent,,,,,,,,,,,,,,,,,,,,,,,,,,,,,,0,11,11,1,,,,,,,,,,,,,,,,,,,,,,,,,,,,,,,,,,,,,699.4555869000033,1.015386999992188,700.462903800013,700.546206500032,701.3460262000444,701.4458546000533,701.4458546000533,701.4458546000533,down,1,1.906943499983754,,,,,,,,,,,,,,,,,,,,,,,,,,,,,,,,,,,,,010,001,2023-11-21_16h21.36.433,ETproject_Chi_2023.1.1,2023.1.1,60.015688101552,
33,Month,十一月 ,十二月,,Vert,early,up,image/Chi_early.png,"[0, 0.4]","[0, -0.4]",1,congruent,,,,,,,,,,,,,,,,,,,,,,,,,,,,,,0,12,12,2,,,,,,,,,,,,,,,,,,,,,,,,,,,,,,,,,,,,,703.3863890000503,1.012555200024508,704.3949672000017,704.4782089000219,705.2778507000185,705.378101600043,705.378101600043,705.378101600043,up,1,1.2942466999520548,,,,,,,,,,,,,,,,,,,,,,,,,,,,,,,,,,,,,010,001,2023-11-21_16h21.36.433,ETproject_Chi_2023.1.1,2023.1.1,60.015688101552,
38,Month,五月,六月,,Vert,late,down,image/Chi_late.png,"[0, 0.4]","[0, -0.4]",1,congruent,,,,,,,,,,,,,,,,,,,,,,,,,,,,,,0,13,13,20,,,,,,,,,,,,,,,,,,,,,,,,,,,,,,,,,,,,,706.7076310000266,1.0102236000238918,707.7104467000463,707.7937951000058,708.5936281000031,708.693512900034,708.693512900034,708.693512900034,up,0,1.1865518999984488,,,,,,,,,,,,,,,,,,,,,,,,,,,,,,,,,,,,,010,001,2023-11-21_16h21.36.433,ETproject_Chi_2023.1.1,2023.1.1,60.015688101552,
149,Week,星期五,星期四,,Vert,late,up,image/Chi_late.png,"[0, 0.4]","[0, -0.4]",1,incongruent,,,,,,,,,,,,,,,,,,,,,,,,,,,,,,0,14,14,8,,,,,,,,,,,,,,,,,,,,,,,,,,,,,,,,,,,,,709.9202465999988,1.0116854999796487,710.9260601000278,711.0093724000035,711.8089851000113,711.908972300007,711.908972300007,711.908972300007,up,1,1.5789558999822475,,,,,,,,,,,,,,,,,,,,,,,,,,,,,,,,,,,,,010,001,2023-11-21_16h21.36.433,ETproject_Chi_2023.1.1,2023.1.1,60.015688101552,
52,Month,八月,四月,,Vert,early,down,image/Chi_early.png,"[0, 0.4]","[0, -0.4]",4,incongruent,,,,,,,,,,,,,,,,,,,,,,,,,,,,,,0,15,15,31,,,,,,,,,,,,,,,,,,,,,,,,,,,,,,,,,,,,,713.5195516000385,1.013612499984447,714.5250521000125,714.6080969000468,715.4078985000378,715.5078555000364,715.5078555000364,715.5078555000364,down,1,0.932015499973204,,,,,,,,,,,,,,,,,,,,,,,,,,,,,,,,,,,,,010,001,2023-11-21_16h21.36.433,ETproject_Chi_2023.1.1,2023.1.1,60.015688101552,
127,Week,星期四,星期三 ,,Hori,early,right,image/Chi_early.png,"[-0.4, 0]","[0.4, 0]",1,incongruent,,,,,,,,,,,,,,,,,,,,,,,,,,,,,,0,16,16,48,,,,,,,,,,,,,,,,,,,,,,,,,,,,,,,,,,,,,716.468428799999,1.0108302000444382,717.4737464000355,717.5572025000001,718.3569980000029,718.4571644000243,718.4571644000243,718.4571644000243,right,1,1.1192755000083707,,,,,,,,,,,,,,,,,,,,,,,,,,,,,,,,,,,,,010,001,2023-11-21_16h21.36.433,ETproject_Chi_2023.1.1,2023.1.1,60.015688101552,
3,Month,三月,五月,,Hori,early,left,image/Chi_early.png,"[-0.4, 0]","[0.4, 0]",2,congruent,,,,,,,,,,,,,,,,,,,,,,,,,,,,,,0,17,17,29,,,,,,,,,,,,,,,,,,,,,,,,,,,,,,,,,,,,,719.613669900049,1.0132816000259481,720.6228528000065,720.7061563000316,721.50594860001,721.6061309000361,721.6061309000361,721.6061309000361,left,1,0.7298440999584273,,,,,,,,,,,,,,,,,,,,,,,,,,,,,,,,,,,,,010,001,2023-11-21_16h21.36.433,ETproject_Chi_2023.1.1,2023.1.1,60.015688101552,
107,Week,星期四,星期日,,Hori,late,right,image/Chi_late.png,"[-0.4, 0]","[0.4, 0]",3,congruent,,,,,,,,,,,,,,,,,,,,,,,,,,,,,,0,18,18,34,,,,,,,,,,,,,,,,,,,,,,,,,,,,,,,,,,,,,722.3710023000021,1.0110678999917582,723.3718594000093,723.4552304000244,724.2549933000118,724.3549567000009,724.3549567000009,724.3549567000009,right,1,1.1179843999561854,,,,,,,,,,,,,,,,,,,,,,,,,,,,,,,,,,,,,010,001,2023-11-21_16h21.36.433,ETproject_Chi_2023.1.1,2023.1.1,60.015688101552,
52,Month,十月 ,七月,,Hori,late,left,image/Chi_late.png,"[-0.4, 0]","[0.4, 0]",3,incongruent,,,,,,,,,,,,,,,,,,,,,,,,,,,,,,0,19,19,41,,,,,,,,,,,,,,,,,,,,,,,,,,,,,,,,,,,,,725.514433400007,1.0127008999697864,726.5208292000461,726.6043143999996,727.4038887000061,727.5038979000528,727.5038979000528,727.5038979000528,right,0,1.215818400029093,,,,,,,,,,,,,,,,,,,,,,,,,,,,,,,,,,,,,010,001,2023-11-21_16h21.36.433,ETproject_Chi_2023.1.1,2023.1.1,60.015688101552,
11,Month,一月,三月,,Hori,late,right,image/Chi_late.png,"[-0.4, 0]","[0.4, 0]",2,congruent,,,,,,,,,,,,,,,,,,,,,,,,,,,,,,0,20,20,5,,,,,,,,,,,,,,,,,,,,,,,,,,,,,,,,,,,,,728.7471900000237,1.0112588999909349,729.7531137000187,729.8365163000417,730.6362977999961,730.736166800023,730.736166800023,730.736166800023,right,1,0.6798329000012018,,,,,,,,,,,,,,,,,,,,,,,,,,,,,,,,,,,,,010,001,2023-11-21_16h21.36.433,ETproject_Chi_2023.1.1,2023.1.1,60.015688101552,
36,Month,八月,四月,,Hori,early,right,image/Chi_early.png,"[-0.4, 0]","[0.4, 0]",4,incongruent,,,,,,,,,,,,,,,,,,,,,,,,,,,,,,0,21,21,27,,,,,,,,,,,,,,,,,,,,,,,,,,,,,,,,,,,,,731.446639700036,1.0153614999726415,732.4522479000152,732.5357170000207,733.3353177999961,733.4352191000362,733.4352191000362,733.4352191000362,right,1,0.8686420999583788,,,,,,,,,,,,,,,,,,,,,,,,,,,,,,,,,,,,,010,001,2023-11-21_16h21.36.433,ETproject_Chi_2023.1.1,2023.1.1,60.015688101552,
50,Month,七月,六月,,Hori,early,right,image/Chi_early.png,"[-0.4, 0]","[0.4, 0]",1,incongruent,,,,,,,,,,,,,,,,,,,,,,,,,,,,,,0,22,22,28,,,,,,,,,,,,,,,,,,,,,,,,,,,,,,,,,,,,,734.346482300025,0.9990274999872781,735.3512822000193,735.4347783999983,736.2343847000157,736.3343619000516,736.3343619000516,736.3343619000516,right,1,1.1380544999847189,,,,,,,,,,,,,,,,,,,,,,,,,,,,,,,,,,,,,010,001,2023-11-21_16h21.36.433,ETproject_Chi_2023.1.1,2023.1.1,60.015688101552,
42,Month,九月 ,六月,,Hori,early,right,image/Chi_early.png,"[-0.4, 0]","[0.4, 0]",3,incongruent,,,,,,,,,,,,,,,,,,,,,,,,,,,,,,0,23,23,4,,,,,,,,,,,,,,,,,,,,,,,,,,,,,,,,,,,,,737.5038390000118,1.0153194000013173,738.5168828000315,738.6003365000361,739.3999255000381,739.5000553000136,739.5000553000136,739.5000553000136,right,1,0.8762096000136808,,,,,,,,,,,,,,,,,,,,,,,,,,,,,,,,,,,,,010,001,2023-11-21_16h21.36.433,ETproject_Chi_2023.1.1,2023.1.1,60.015688101552,
58,Month,十月 ,八月,,Hori,late,left,image/Chi_late.png,"[-0.4, 0]","[0.4, 0]",2,incongruent,,,,,,,,,,,,,,,,,,,,,,,,,,,,,,0,24,24,26,,,,,,,,,,,,,,,,,,,,,,,,,,,,,,,,,,,,,740.4201824000338,1.0095008999924175,741.4325622000033,741.4992476000334,742.298966500035,742.3990908000269,742.3990908000269,742.3990908000269,left,1,0.9852193999686278,,,,,,,,,,,,,,,,,,,,,,,,,,,,,,,,,,,,,010,001,2023-11-21_16h21.36.433,ETproject_Chi_2023.1.1,2023.1.1,60.015688101552,
122,Week,星期五,星期六,,Vert,late,down,image/Chi_late.png,"[0, 0.4]","[0, -0.4]",1,congruent,,,,,,,,,,,,,,,,,,,,,,,,,,,,,,0,25,25,38,,,,,,,,,,,,,,,,,,,,,,,,,,,,,,,,,,,,,743.4238791000098,1.0123779000132345,744.4316927000182,744.5149452000041,745.3148781000054,745.414785400033,745.414785400033,745.414785400033,down,1,2.4254406999680214,,,,,,,,,,,,,,,,,,,,,,,,,,,,,,,,,,,,,010,001,2023-11-21_16h21.36.433,ETproject_Chi_2023.1.1,2023.1.1,60.015688101552,
69,Month,十一月 ,九月 ,,Vert,early,down,image/Chi_early.png,"[0, 0.4]","[0, -0.4]",2,incongruent,,,,,,,,,,,,,,,,,,,,,,,,,,,,,,0,26,26,32,,,,,,,,,,,,,,,,,,,,,,,,,,,,,,,,,,,,,747.8803610000177,1.011637499963399,748.8802907000063,748.963467900001,749.7632639000076,749.8632730999961,749.8632730999961,749.8632730999961,down,1,0.9928440000512637,,,,,,,,,,,,,,,,,,,,,,,,,,,,,,,,,,,,,010,001,2023-11-21_16h21.36.433,ETproject_Chi_2023.1.1,2023.1.1,60.015688101552,
57,Month,五月,一月,,Vert,late,up,image/Chi_late.png,"[0, 0.4]","[0, -0.4]",4,incongruent,,,,,,,,,,,,,,,,,,,,,,,,,,,,,,0,27,27,25,,,,,,,,,,,,,,,,,,,,,,,,,,,,,,,,,,,,,750.901426299999,1.0106293000280857,751.9124053000123,751.9793463000096,752.7789309000364,752.8788293999969,752.8788293999969,752.8788293999969,up,1,1.23284190002596,,,,,,,,,,,,,,,,,,,,,,,,,,,,,,,,,,,,,010,001,2023-11-21_16h21.36.433,ETproject_Chi_2023.1.1,2023.1.1,60.015688101552,
68,Month,三月,二月,,Vert,early,down,image/Chi_early.png,"[0, 0.4]","[0, -0.4]",1,incongruent,,,,,,,,,,,,,,,,,,,,,,,,,,,,,,0,28,28,46,,,,,,,,,,,,,,,,,,,,,,,,,,,,,,,,,,,,,754.144430400047,1.0114081000210717,755.1449145000079,755.2281684000045,756.0278061000281,756.127895200043,756.127895200043,756.127895200043,down,1,1.0159756999928504,,,,,,,,,,,,,,,,,,,,,,,,,,,,,,,,,,,,,010,001,2023-11-21_16h21.36.433,ETproject_Chi_2023.1.1,2023.1.1,60.015688101552,
8,Month,八月,十二月,,Hori,early,left,image/Chi_early.png,"[-0.4, 0]","[0.4, 0]",4,congruent,,,,,,,,,,,,,,,,,,,,,,,,,,,,,,0,29,29,7,,,,,,,,,,,,,,,,,,,,,,,,,,,,,,,,,,,,,757.1703271000297,1.0113074000109918,758.1773075000383,758.2604131000116,759.0601295000524,759.1601046000142,759.1601046000142,759.1601046000142,left,1,0.8236412999685854,,,,,,,,,,,,,,,,,,,,,,,,,,,,,,,,,,,,,010,001,2023-11-21_16h21.36.433,ETproject_Chi_2023.1.1,2023.1.1,60.015688101552,
51,Month,七月,三月,,Vert,early,down,image/Chi_early.png,"[0, 0.4]","[0, -0.4]",4,incongruent,,,,,,,,,,,,,,,,,,,,,,,,,,,,,,0,30,30,12,,,,,,,,,,,,,,,,,,,,,,,,,,,,,,,,,,,,,760.0151202999987,1.015548099996522,761.0261314000236,761.1094212000025,761.9092897000373,762.0091933000367,762.0091933000367,762.0091933000367,down,1,1.2870849999599159,,,,,,,,,,,,,,,,,,,,,,,,,,,,,,,,,,,,,010,001,2023-11-21_16h21.36.433,ETproject_Chi_2023.1.1,2023.1.1,60.015688101552,
119,Week,星期二,星期四,,Vert,late,down,image/Chi_late.png,"[0, 0.4]","[0, -0.4]",2,congruent,,,,,,,,,,,,,,,,,,,,,,,,,,,,,,0,31,31,45,,,,,,,,,,,,,,,,,,,,,,,,,,,,,,,,,,,,,763.3345131000387,0.9992623000289313,764.341637900041,764.4252968000364,765.224904200004,765.3250052000512,765.3250052000512,765.3250052000512,down,1,1.027595299994573,,,,,,,,,,,,,,,,,,,,,,,,,,,,,,,,,,,,,010,001,2023-11-21_16h21.36.433,ETproject_Chi_2023.1.1,2023.1.1,60.015688101552,
38,Month,十月 ,六月,,Hori,early,right,image/Chi_early.png,"[-0.4, 0]","[0.4, 0]",4,incongruent,,,,,,,,,,,,,,,,,,,,,,,,,,,,,,0,32,32,18,,,,,,,,,,,,,,,,,,,,,,,,,,,,,,,,,,,,,766.3803938000347,0.999355599982664,767.3906581000192,767.4742037000251,768.273839600035,768.3736866000108,768.3736866000108,768.3736866000108,right,1,0.8355911000398919,,,,,,,,,,,,,,,,,,,,,,,,,,,,,,,,,,,,,010,001,2023-11-21_16h21.36.433,ETproject_Chi_2023.1.1,2023.1.1,60.015688101552,
43,Month,五月,三月,,Hori,early,right,image/Chi_early.png,"[-0.4, 0]","[0.4, 0]",2,incongruent,,,,,,,,,,,,,,,,,,,,,,,,,,,,,,0,33,33,16,,,,,,,,,,,,,,,,,,,,,,,,,,,,,,,,,,,,,769.2442462000181,0.9990205999929458,770.2565513000009,770.339813700004,771.1394610000425,771.2395813000039,771.2395813000039,771.2395813000039,right,1,1.009099500020966,,,,,,,,,,,,,,,,,,,,,,,,,,,,,,,,,,,,,010,001,2023-11-21_16h21.36.433,ETproject_Chi_2023.1.1,2023.1.1,60.015688101552,
107,Week,星期四,星期五,,Hori,late,right,image/Chi_late.png,"[-0.4, 0]","[0.4, 0]",1,congruent,,,,,,,,,,,,,,,,,,,,,,,,,,,,,,0,34,34,19,,,,,,,,,,,,,,,,,,,,,,,,,,,,,,,,,,,,,772.2812511000084,1.0151127999997698,773.2887737000128,773.3721348000108,774.1719495000434,774.2718407000066,774.2718407000066,774.2718407000066,right,1,1.3766439000028186,,,,,,,,,,,,,,,,,,,,,,,,,,,,,,,,,,,,,010,001,2023-11-21_16h21.36.433,ETproject_Chi_2023.1.1,2023.1.1,60.015688101552,
32,Month,五月,八月,,Vert,late,down,image/Chi_late.png,"[0, 0.4]","[0, -0.4]",3,congruent,,,,,,,,,,,,,,,,,,,,,,,,,,,,,,0,35,35,9,,,,,,,,,,,,,,,,,,,,,,,,,,,,,,,,,,,,,775.6772241000435,1.0153479999862611,776.6876198000391,776.770949000027,777.5707077000407,777.6706988000078,777.6706988000078,777.6706988000078,down,1,1.5531719000427984,,,,,,,,,,,,,,,,,,,,,,,,,,,,,,,,,,,,,010,001,2023-11-21_16h21.36.433,ETproject_Chi_2023.1.1,2023.1.1,60.015688101552,
32,Month,十月 ,十一月 ,,Vert,early,up,image/Chi_early.png,"[0, 0.4]","[0, -0.4]",1,congruent,,,,,,,,,,,,,,,,,,,,,,,,,,,,,,0,36,36,44,,,,,,,,,,,,,,,,,,,,,,,,,,,,,,,,,,,,,779.2645038000192,1.0119722000090405,780.2697017000173,780.3534406000399,781.1530621999991,781.2530300000217,781.2530300000217,781.2530300000217,up,1,1.0672819999745116,,,,,,,,,,,,,,,,,,,,,,,,,,,,,,,,,,,,,010,001,2023-11-21_16h21.36.433,ETproject_Chi_2023.1.1,2023.1.1,60.015688101552,
15,Month,七月,十一月 ,,Hori,late,right,image/Chi_late.png,"[-0.4, 0]","[0.4, 0]",4,congruent,,,,,,,,,,,,,,,,,,,,,,,,,,,,,,0,37,37,15,,,,,,,,,,,,,,,,,,,,,,,,,,,,,,,,,,,,,782.3614691999974,1.0123204999836162,783.3687239999999,783.452342500037,784.2519956000033,784.351781400037,784.351781400037,784.351781400037,right,1,1.0477832999895327,,,,,,,,,,,,,,,,,,,,,,,,,,,,,,,,,,,,,010,001,2023-11-21_16h21.36.433,ETproject_Chi_2023.1.1,2023.1.1,60.015688101552,
64,Month,四月,一月,,Vert,late,up,image/Chi_late.png,"[0, 0.4]","[0, -0.4]",3,incongruent,,,,,,,,,,,,,,,,,,,,,,,,,,,,,,0,38,38,24,,,,,,,,,,,,,,,,,,,,,,,,,,,,,,,,,,,,,785.4216864000191,1.0158655000268482,786.434532000043,786.5178627000423,787.3176088000182,787.4176712000044,787.4176712000044,787.4176712000044,up,1,1.1906925999792293,,,,,,,,,,,,,,,,,,,,,,,,,,,,,,,,,,,,,010,001,2023-11-21_16h21.36.433,ETproject_Chi_2023.1.1,2023.1.1,60.015688101552,
47,Month,十一月 ,七月,,Hori,late,left,image/Chi_late.png,"[-0.4, 0]","[0.4, 0]",4,incongruent,,,,,,,,,,,,,,,,,,,,,,,,,,,,,,0,39,39,37,,,,,,,,,,,,,,,,,,,,,,,,,,,,,,,,,,,,,788.646559100016,1.0118777999887243,789.6499613000196,789.7335065000225,790.5332276000408,790.6333469000529,790.6333469000529,790.6333469000529,left,1,0.806957200053148,,,,,,,,,,,,,,,,,,,,,,,,,,,,,,,,,,,,,010,001,2023-11-21_16h21.36.433,ETproject_Chi_2023.1.1,2023.1.1,60.015688101552,
133,Week,星期五,星期二,,Hori,late,left,image/Chi_late.png,"[-0.4, 0]","[0.4, 0]",3,incongruent,,,,,,,,,,,,,,,,,,,,,,,,,,,,,,0,40,40,49,,,,,,,,,,,,,,,,,,,,,,,,,,,,,,,,,,,,,791.4717211000388,1.015098100004252,792.4823555000476,792.565791400033,793.3654579000431,793.4653997000423,793.4653997000423,793.4653997000423,left,1,0.8471369999460876,,,,,,,,,,,,,,,,,,,,,,,,,,,,,,,,,,,,,010,001,2023-11-21_16h21.36.433,ETproject_Chi_2023.1.1,2023.1.1,60.015688101552,
9,Month,九月 ,十月 ,,Hori,early,left,image/Chi_early.png,"[-0.4, 0]","[0.4, 0]",1,congruent,,,,,,,,,,,,,,,,,,,,,,,,,,,,,,0,41,41,47,,,,,,,,,,,,,,,,,,,,,,,,,,,,,,,,,,,,,794.3468344000285,1.0134337999625131,795.3481171000167,795.4317005000194,796.231482400035,796.331268400012,796.331268400012,796.331268400012,left,1,0.8767740000039339,,,,,,,,,,,,,,,,,,,,,,,,,,,,,,,,,,,,,010,001,2023-11-21_16h21.36.433,ETproject_Chi_2023.1.1,2023.1.1,60.015688101552,
105,Week,星期二,星期五,,Hori,late,right,image/Chi_late.png,"[-0.4, 0]","[0.4, 0]",3,congruent,,,,,,,,,,,,,,,,,,,,,,,,,,,,,,0,42,42,42,,,,,,,,,,,,,,,,,,,,,,,,,,,,,,,,,,,,,797.2420799000538,1.0112812999868765,798.2473919000477,798.3307157000527,799.1302972999983,799.2303123000311,799.2303123000311,799.2303123000311,right,1,0.7537866000202484,,,,,,,,,,,,,,,,,,,,,,,,,,,,,,,,,,,,,010,001,2023-11-21_16h21.36.433,ETproject_Chi_2023.1.1,2023.1.1,60.015688101552,
50,Month,六月,二月,,Vert,early,down,image/Chi_early.png,"[0, 0.4]","[0, -0.4]",4,incongruent,,,,,,,,,,,,,,,,,,,,,,,,,,,,,,0,43,43,30,,,,,,,,,,,,,,,,,,,,,,,,,,,,,,,,,,,,,800.0297477000277,1.0115649999934249,801.029641900037,801.113141000038,801.9126807000139,802.012938000029,802.012938000029,802.012938000029,down,1,1.019598999992013,,,,,,,,,,,,,,,,,,,,,,,,,,,,,,,,,,,,,010,001,2023-11-21_16h21.36.433,ETproject_Chi_2023.1.1,2023.1.1,60.015688101552,
106,Week,星期三 ,星期五,,Hori,late,right,image/Chi_late.png,"[-0.4, 0]","[0.4, 0]",2,congruent,,,,,,,,,,,,,,,,,,,,,,,,,,,,,,0,44,44,33,,,,,,,,,,,,,,,,,,,,,,,,,,,,,,,,,,,,,803.0754502000054,1.0113152000121772,804.0786569000338,804.1619769000099,804.9616418000078,805.0617153000203,805.0617153000203,805.0617153000203,right,1,1.1223369999788702,,,,,,,,,,,,,,,,,,,,,,,,,,,,,,,,,,,,,010,001,2023-11-21_16h21.36.433,ETproject_Chi_2023.1.1,2023.1.1,60.015688101552,
43,Month,七月,三月,,Hori,late,left,image/Chi_late.png,"[-0.4, 0]","[0.4, 0]",4,incongruent,,,,,,,,,,,,,,,,,,,,,,,,,,,,,,0,45,45,39,,,,,,,,,,,,,,,,,,,,,,,,,,,,,,,,,,,,,806.2210742000025,1.0115275999996811,807.2278515000362,807.3110604000394,808.1106303000124,808.2105950000114,808.2105950000114,808.2105950000114,left,1,0.813714699994307,,,,,,,,,,,,,,,,,,,,,,,,,,,,,,,,,,,,,010,001,2023-11-21_16h21.36.433,ETproject_Chi_2023.1.1,2023.1.1,60.015688101552,
46,Month,三月,二月,,Hori,early,right,image/Chi_early.png,"[-0.4, 0]","[0.4, 0]",1,incongruent,,,,,,,,,,,,,,,,,,,,,,,,,,,,,,0,46,46,36,,,,,,,,,,,,,,,,,,,,,,,,,,,,,,,,,,,,,809.0553502000403,1.010852099978365,810.0599101000116,810.1432842000504,810.9428759000148,811.042945000052,811.042945000052,811.042945000052,right,1,0.7577911000116728,,,,,,,,,,,,,,,,,,,,,,,,,,,,,,,,,,,,,010,001,2023-11-21_16h21.36.433,ETproject_Chi_2023.1.1,2023.1.1,60.015688101552,
143,Week,星期日,星期五,,Vert,early,down,image/Chi_early.png,"[0, 0.4]","[0, -0.4]",2,incongruent,,,,,,,,,,,,,,,,,,,,,,,,,,,,,,0,47,47,22,,,,,,,,,,,,,,,,,,,,,,,,,,,,,,,,,,,,,811.8317148000351,1.013690200052224,812.8424051000038,812.9258987000212,813.7255795000237,813.8254500000039,813.8254500000039,813.8254500000039,down,1,1.6558991000056267,,,,,,,,,,,,,,,,,,,,,,,,,,,,,,,,,,,,,010,001,2023-11-21_16h21.36.433,ETproject_Chi_2023.1.1,2023.1.1,60.015688101552,
12,Month,二月,四月,,Hori,late,right,image/Chi_late.png,"[-0.4, 0]","[0.4, 0]",2,congruent,,,,,,,,,,,,,,,,,,,,,,,,,,,,,,0,48,48,21,,,,,,,,,,,,,,,,,,,,,,,,,,,,,,,,,,,,,815.5148447999964,1.0156697999918833,816.5245223000529,816.6078367000446,817.4074882999994,817.5075510000461,817.5075510000461,817.5075510000461,right,1,1.044435300049372,,,,,,,,,,,,,,,,,,,,,,,,,,,,,,,,,,,,,010,001,2023-11-21_16h21.36.433,ETproject_Chi_2023.1.1,2023.1.1,60.015688101552,
128,Week,星期日,星期四,,Hori,early,right,image/Chi_early.png,"[-0.4, 0]","[0.4, 0]",3,incongruent,,,,,,,,,,,,,,,,,,,,,,,,,,,,,,0,49,49,35,,,,,,,,,,,,,,,,,,,,,,,,,,,,,,,,,,,,,818.5859976000502,1.0153306999709457,819.5901858000434,819.6736073000357,820.4731519000488,820.573426500021,820.573426500021,820.573426500021,right,1,2.1299432999803685,,,,,,,,,,,,,,,,,,,,,,,,,,,,,,,,,,,,,010,001,2023-11-21_16h21.36.433,ETproject_Chi_2023.1.1,2023.1.1,60.015688101552,
,,,,,,,,,,,,,,,,,,,,,,,,,,,,,,,,,,,,,,,,,,,,,,,,,,,,,,,,,,,,,,,,,,,,,,,,,,,,,,,,,,,,,,,,,,,,,,,,,,,,,,,,,,,,,,,,,,,,,,,822.7227520000306,822.7227520000306,space,4.461516099981964,,,,,,,010,001,2023-11-21_16h21.36.433,ETproject_Chi_2023.1.1,2023.1.1,60.015688101552,
,,,,,,,,,,,,,Spring 1.jpg,这是春天吗？,是,Left,Break_material/Image/Spring 1.jpg,,,,,,,,,,,,,,,,,,,,,,,,,,,,,0,0,0,0,,,,,,,,,,,,,,,,,,,,,,,,,,,,,,,,,,,,,,,,,,,,,,,,827.2847494000453,831.1894678000244,831.2864203000208,833.2024386000121,833.2024386000121,833.2024386000121,833.2024386000121,left,0,0.48521950002759695,,,,,,,,,,,,,,,,,,,,,,,010,001,2023-11-21_16h21.36.433,ETproject_Chi_2023.1.1,2023.1.1,60.015688101552,
,,,,,,,,,,,,,Spring 2.jpg,这是冬天吗？,否,Right,Break_material/Image/Spring 2.jpg,,,,,,,,,,,,,,,,,,,,,,,,,,,,,0,1,1,1,,,,,,,,,,,,,,,,,,,,,,,,,,,,,,,,,,,,,,,,,,,,,,,,833.7868791000219,837.7042568000033,837.7842522000428,839.7170352000394,839.7170352000394,839.7170352000394,839.7170352000394,right,0,0.32298830000218004,,,,,,,,,,,,,,,,,,,,,,,010,001,2023-11-21_16h21.36.433,ETproject_Chi_2023.1.1,2023.1.1,60.015688101552,
,,,,,,,,,,,,,Spring 5.jpg,这是冬天吗？,否,Right,Break_material/Image/Spring 5.jpg,,,,,,,,,,,,,,,,,,,,,,,,,,,,,0,2,2,4,,,,,,,,,,,,,,,,,,,,,,,,,,,,,,,,,,,,,,,,,,,,,,,,840.5139384000213,844.0534241000423,844.5155736000161,846.0650326000177,846.0650326000177,846.0650326000177,846.0650326000177,right,0,0.3271019000094384,,,,,,,,,,,,,,,,,,,,,,,010,001,2023-11-21_16h21.36.433,ETproject_Chi_2023.1.1,2023.1.1,60.015688101552,
,,,,,,,,,,,,,Spring 3.jpg,这是夏天吗？,否,Right,Break_material/Image/Spring 3.jpg,,,,,,,,,,,,,,,,,,,,,,,,,,,,,0,3,3,2,,,,,,,,,,,,,,,,,,,,,,,,,,,,,,,,,,,,,,,,,,,,,,,,846.6468778999988,850.4003674000269,850.6466645000037,852.4128701000009,852.4128701000009,852.4128701000009,852.4128701000009,left,0,0.2745491999667138,,,,,,,,,,,,,,,,,,,,,,,010,001,2023-11-21_16h21.36.433,ETproject_Chi_2023.1.1,2023.1.1,60.015688101552,
,,,,,,,,,,,,,Spring 4.jpg,这是秋天吗？,否,Right,Break_material/Image/Spring 4.jpg,,,,,,,,,,,,,,,,,,,,,,,,,,,,,0,4,4,3,,,,,,,,,,,,,,,,,,,,,,,,,,,,,,,,,,,,,,,,,,,,,,,,852.9206016000244,856.6988706000266,856.9280222000089,858.7110525000026,858.7110525000026,858.7110525000026,858.7110525000026,right,0,0.26522010000189766,,,,,,,,,,,,,,,,,,,,,,,010,001,2023-11-21_16h21.36.433,ETproject_Chi_2023.1.1,2023.1.1,60.015688101552,
,,,,,,,,,,,,,,,,,,,,,,,,,,,,,,,,,,,,,,,,,,,,,,,,,,,,,,,,,,,,,,,,,,,,,,,,,,,,,,,,,,,,,,,,,,,,,,,,,,,,,,,,,,,,,,,,,,,,,,,,,,,858.9943102000398,858.9943102000398,space,2.87038619996747,,,010,001,2023-11-21_16h21.36.433,ETproject_Chi_2023.1.1,2023.1.1,60.015688101552,
74,Month,九月 ,八月,,Vert,early,down,image/Chi_early.png,"[0, 0.4]","[0, -0.4]",1,incongruent,,,,,,,,,,,,,,,,,,,,,,,,,,,,,,,,,,,,,,0,0,0,38,,,,,,,,,,,,,,,,,,,,,,,,,,,,,861.9066275000223,0.9996710000559688,862.9094167000148,862.9928509000456,863.7924822000205,863.892457900045,863.892457900045,863.892457900045,down,1,1.028091599990148,,,,,,,,,,,,,,,,,,,,,,,,,,,,,,,,,,,,,010,001,2023-11-21_16h21.36.433,ETproject_Chi_2023.1.1,2023.1.1,60.015688101552,
120,Week,星期三 ,星期四,,Vert,late,down,image/Chi_late.png,"[0, 0.4]","[0, -0.4]",1,congruent,,,,,,,,,,,,,,,,,,,,,,,,,,,,,,,,,,,,,,0,1,1,46,,,,,,,,,,,,,,,,,,,,,,,,,,,,,864.9578023000504,1.0100972999935038,865.9586829000036,866.0418411000283,866.8415216000285,866.9415807000478,866.9415807000478,866.9415807000478,down,1,1.1146926000365056,,,,,,,,,,,,,,,,,,,,,,,,,,,,,,,,,,,,,010,001,2023-11-21_16h21.36.433,ETproject_Chi_2023.1.1,2023.1.1,60.015688101552,
15,Month,六月,九月 ,,Hori,late,right,image/Chi_late.png,"[-0.4, 0]","[0.4, 0]",3,congruent,,,,,,,,,,,,,,,,,,,,,,,,,,,,,,,,,,,,,,0,2,2,42,,,,,,,,,,,,,,,,,,,,,,,,,,,,,868.0821075999993,1.0129188999999315,869.090890499996,869.174328699999,869.9740174000035,870.0738661000505,870.0738661000505,870.0738661000505,right,1,0.9577352000051178,,,,,,,,,,,,,,,,,,,,,,,,,,,,,,,,,,,,,010,001,2023-11-21_16h21.36.433,ETproject_Chi_2023.1.1,2023.1.1,60.015688101552,
121,Week,星期四,星期日,,Vert,late,down,image/Chi_late.png,"[0, 0.4]","[0, -0.4]",3,congruent,,,,,,,,,,,,,,,,,,,,,,,,,,,,,,,,,,,,,,0,3,3,22,,,,,,,,,,,,,,,,,,,,,,,,,,,,,871.0688913000049,1.011491700017359,872.0732509000227,872.1565731000155,872.9561654000427,873.0562927999999,873.0562927999999,873.0562927999999,down,1,1.0642067000153475,,,,,,,,,,,,,,,,,,,,,,,,,,,,,,,,,,,,,010,001,2023-11-21_16h21.36.433,ETproject_Chi_2023.1.1,2023.1.1,60.015688101552,
16,Month,五月,六月,,Hori,late,right,image/Chi_late.png,"[-0.4, 0]","[0.4, 0]",1,congruent,,,,,,,,,,,,,,,,,,,,,,,,,,,,,,,,,,,,,,0,4,4,32,,,,,,,,,,,,,,,,,,,,,,,,,,,,,874.1430102000013,1.0157142000389285,875.1554516000324,875.2388722000178,876.0386070000241,876.138480100024,876.138480100024,876.138480100024,right,1,0.7656953000114299,,,,,,,,,,,,,,,,,,,,,,,,,,,,,,,,,,,,,010,001,2023-11-21_16h21.36.433,ETproject_Chi_2023.1.1,2023.1.1,60.015688101552,
67,Month,七月,四月,,Vert,late,up,image/Chi_late.png,"[0, 0.4]","[0, -0.4]",3,incongruent,,,,,,,,,,,,,,,,,,,,,,,,,,,,,,,,,,,,,,0,5,5,6,,,,,,,,,,,,,,,,,,,,,,,,,,,,,876.9267836000072,1.0144162999931723,877.9378427000483,878.0211697000195,878.8208694000496,878.9210442000185,878.9210442000185,878.9210442000185,up,1,1.134348499996122,,,,,,,,,,,,,,,,,,,,,,,,,,,,,,,,,,,,,010,001,2023-11-21_16h21.36.433,ETproject_Chi_2023.1.1,2023.1.1,60.015688101552,
141,Week,星期四,星期三 ,,Vert,early,down,image/Chi_early.png,"[0, 0.4]","[0, -0.4]",1,incongruent,,,,,,,,,,,,,,,,,,,,,,,,,,,,,,,,,,,,,,0,6,6,7,,,,,,,,,,,,,,,,,,,,,,,,,,,,,880.0968533999985,1.0149984000017866,881.103439700033,881.1867862000363,881.9865720000234,882.0864508000086,882.0864508000086,882.0864508000086,down,1,1.401419600006193,,,,,,,,,,,,,,,,,,,,,,,,,,,,,,,,,,,,,010,001,2023-11-21_16h21.36.433,ETproject_Chi_2023.1.1,2023.1.1,60.015688101552,
73,Month,八月,七月,,Vert,early,down,image/Chi_early.png,"[0, 0.4]","[0, -0.4]",1,incongruent,,,,,,,,,,,,,,,,,,,,,,,,,,,,,,,,,,,,,,0,7,7,29,,,,,,,,,,,,,,,,,,,,,,,,,,,,,883.5282931000111,1.011554399970919,884.5355712000164,884.6189379999996,885.4188811000204,885.5189172000391,885.5189172000391,885.5189172000391,down,1,1.3303919999743812,,,,,,,,,,,,,,,,,,,,,,,,,,,,,,,,,,,,,010,001,2023-11-21_16h21.36.433,ETproject_Chi_2023.1.1,2023.1.1,60.015688101552,
27,Month,七月,九月 ,,Vert,early,up,image/Chi_early.png,"[0, 0.4]","[0, -0.4]",2,congruent,,,,,,,,,,,,,,,,,,,,,,,,,,,,,,,,,,,,,,0,8,8,17,,,,,,,,,,,,,,,,,,,,,,,,,,,,,886.8752659000456,0.9992511999444105,887.8846820000326,887.96795260004,888.7678188999998,888.8676100000157,888.8676100000157,888.8676100000157,up,1,1.0765782999806106,,,,,,,,,,,,,,,,,,,,,,,,,,,,,,,,,,,,,010,001,2023-11-21_16h21.36.433,ETproject_Chi_2023.1.1,2023.1.1,60.015688101552,
98,Week,星期二,星期四,,Hori,early,left,image/Chi_early.png,"[-0.4, 0]","[0.4, 0]",2,congruent,,,,,,,,,,,,,,,,,,,,,,,,,,,,,,,,,,,,,,0,9,9,47,,,,,,,,,,,,,,,,,,,,,,,,,,,,,889.9725095000467,1.0153808000031859,890.9835729000042,891.0669970000163,891.8665876000305,891.966688000015,891.966688000015,891.966688000015,left,1,1.434697899967432,,,,,,,,,,,,,,,,,,,,,,,,,,,,,,,,,,,,,010,001,2023-11-21_16h21.36.433,ETproject_Chi_2023.1.1,2023.1.1,60.015688101552,
29,Month,二月,五月,,Vert,late,down,image/Chi_late.png,"[0, 0.4]","[0, -0.4]",3,congruent,,,,,,,,,,,,,,,,,,,,,,,,,,,,,,,,,,,,,,0,10,10,14,,,,,,,,,,,,,,,,,,,,,,,,,,,,,893.4482987000374,1.0127652999944985,894.4490861000377,894.5325479000458,895.33220970002,895.4321240000427,895.4321240000427,895.4321240000427,down,1,1.3436519000097178,,,,,,,,,,,,,,,,,,,,,,,,,,,,,,,,,,,,,010,001,2023-11-21_16h21.36.433,ETproject_Chi_2023.1.1,2023.1.1,60.015688101552,
27,Month,五月,六月,,Vert,early,up,image/Chi_early.png,"[0, 0.4]","[0, -0.4]",1,congruent,,,,,,,,,,,,,,,,,,,,,,,,,,,,,,,,,,,,,,0,11,11,48,,,,,,,,,,,,,,,,,,,,,,,,,,,,,896.8109409000026,1.0110557000152767,897.8146177000017,897.8980989000411,898.6978667000076,898.7977906000451,898.7977906000451,898.7977906000451,up,1,1.2583009999943897,,,,,,,,,,,,,,,,,,,,,,,,,,,,,,,,,,,,,010,001,2023-11-21_16h21.36.433,ETproject_Chi_2023.1.1,2023.1.1,60.015688101552,
60,Month,六月,五月,,Hori,late,left,image/Chi_late.png,"[-0.4, 0]","[0.4, 0]",1,incongruent,,,,,,,,,,,,,,,,,,,,,,,,,,,,,,,,,,,,,,0,12,12,43,,,,,,,,,,,,,,,,,,,,,,,,,,,,,900.0964751000283,1.0107416000100784,901.0969327000203,901.1803585000453,901.9798870000523,902.0799644000363,902.0799644000363,902.0799644000363,left,1,0.8566997000016272,,,,,,,,,,,,,,,,,,,,,,,,,,,,,,,,,,,,,010,001,2023-11-21_16h21.36.433,ETproject_Chi_2023.1.1,2023.1.1,60.015688101552,
35,Month,五月,七月,,Vert,late,down,image/Chi_late.png,"[0, 0.4]","[0, -0.4]",2,congruent,,,,,,,,,,,,,,,,,,,,,,,,,,,,,,,,,,,,,,0,13,13,4,,,,,,,,,,,,,,,,,,,,,,,,,,,,,902.9728088999982,1.0119701999938115,903.9792920000036,904.0627351000439,904.8623308000388,904.9622149000061,904.9622149000061,904.9622149000061,down,1,1.2698096000240184,,,,,,,,,,,,,,,,,,,,,,,,,,,,,,,,,,,,,010,001,2023-11-21_16h21.36.433,ETproject_Chi_2023.1.1,2023.1.1,60.015688101552,
49,Month,六月,五月,,Hori,early,right,image/Chi_early.png,"[-0.4, 0]","[0.4, 0]",1,incongruent,,,,,,,,,,,,,,,,,,,,,,,,,,,,,,,,,,,,,,0,14,14,20,,,,,,,,,,,,,,,,,,,,,,,,,,,,,906.2728372000274,1.0111825999920256,907.2781811000314,907.3614016000065,908.1612936000456,908.2612382000079,908.2612382000079,908.2612382000079,right,1,1.579385999997612,,,,,,,,,,,,,,,,,,,,,,,,,,,,,,,,,,,,,010,001,2023-11-21_16h21.36.433,ETproject_Chi_2023.1.1,2023.1.1,60.015688101552,
74,Month,六月,四月,,Vert,late,up,image/Chi_late.png,"[0, 0.4]","[0, -0.4]",2,incongruent,,,,,,,,,,,,,,,,,,,,,,,,,,,,,,,,,,,,,,0,15,15,27,,,,,,,,,,,,,,,,,,,,,,,,,,,,,909.8707816000096,1.0115767999668606,910.8769898000173,910.9604987000348,911.7602125999983,911.8600333000068,911.8600333000068,911.8600333000068,up,1,1.2754059999715537,,,,,,,,,,,,,,,,,,,,,,,,,,,,,,,,,,,,,010,001,2023-11-21_16h21.36.433,ETproject_Chi_2023.1.1,2023.1.1,60.015688101552,
149,Week,星期六,星期四,,Vert,late,up,image/Chi_late.png,"[0, 0.4]","[0, -0.4]",2,incongruent,,,,,,,,,,,,,,,,,,,,,,,,,,,,,,,,,,,,,,0,16,16,10,,,,,,,,,,,,,,,,,,,,,,,,,,,,,913.1718823999981,1.0114416999858804,914.1759126000106,914.2593628000468,915.0588714000187,915.1591417000163,915.1591417000163,915.1591417000163,up,1,1.3445189999765716,,,,,,,,,,,,,,,,,,,,,,,,,,,,,,,,,,,,,010,001,2023-11-21_16h21.36.433,ETproject_Chi_2023.1.1,2023.1.1,60.015688101552,
139,Week,星期三 ,星期一,,Vert,early,down,image/Chi_early.png,"[0, 0.4]","[0, -0.4]",2,incongruent,,,,,,,,,,,,,,,,,,,,,,,,,,,,,,,,,,,,,,0,17,17,13,,,,,,,,,,,,,,,,,,,,,,,,,,,,,916.5389472999959,1.0147743999841623,917.5414484000066,917.6247923000483,918.424495400046,918.5246965000406,918.5246965000406,918.5246965000406,down,1,1.2270307999569923,,,,,,,,,,,,,,,,,,,,,,,,,,,,,,,,,,,,,010,001,2023-11-21_16h21.36.433,ETproject_Chi_2023.1.1,2023.1.1,60.015688101552,
114,Week,星期四,星期六,,Vert,early,up,image/Chi_early.png,"[0, 0.4]","[0, -0.4]",2,congruent,,,,,,,,,,,,,,,,,,,,,,,,,,,,,,,,,,,,,,0,18,18,1,,,,,,,,,,,,,,,,,,,,,,,,,,,,,919.7814261000021,1.0149672999978065,920.7904714000179,920.8737535999971,921.6736277000164,921.7734854000155,921.7734854000155,921.7734854000155,up,1,1.3540046999696642,,,,,,,,,,,,,,,,,,,,,,,,,,,,,,,,,,,,,010,001,2023-11-21_16h21.36.433,ETproject_Chi_2023.1.1,2023.1.1,60.015688101552,
17,Month,一月,五月,,Vert,early,up,image/Chi_early.png,"[0, 0.4]","[0, -0.4]",4,congruent,,,,,,,,,,,,,,,,,,,,,,,,,,,,,,,,,,,,,,0,19,19,35,,,,,,,,,,,,,,,,,,,,,,,,,,,,,923.1729147000005,1.0157939000055194,924.1726390999975,924.2560803000233,925.0556656999979,925.1557708000182,925.1557708000182,925.1557708000182,up,1,0.9086829000152647,,,,,,,,,,,,,,,,,,,,,,,,,,,,,,,,,,,,,010,001,2023-11-21_16h21.36.433,ETproject_Chi_2023.1.1,2023.1.1,60.015688101552,
2,Month,二月,四月,,Hori,early,left,image/Chi_early.png,"[-0.4, 0]","[0.4, 0]",2,congruent,,,,,,,,,,,,,,,,,,,,,,,,,,,,,,,,,,,,,,0,20,20,5,,,,,,,,,,,,,,,,,,,,,,,,,,,,,926.0946476000245,1.013438199996017,927.1051514000283,927.188341800007,927.9881412000395,928.0881686000503,928.0881686000503,928.0881686000503,left,1,0.8794361000182107,,,,,,,,,,,,,,,,,,,,,,,,,,,,,,,,,,,,,010,001,2023-11-21_16h21.36.433,ETproject_Chi_2023.1.1,2023.1.1,60.015688101552,
3,Month,三月,七月,,Hori,early,left,image/Chi_early.png,"[-0.4, 0]","[0.4, 0]",4,congruent,,,,,,,,,,,,,,,,,,,,,,,,,,,,,,,,,,,,,,0,21,21,49,,,,,,,,,,,,,,,,,,,,,,,,,,,,,928.9961344000185,1.0107155999867246,930.0041048999992,930.0873699000222,930.8871047000284,930.9874504000181,930.9874504000181,930.9874504000181,left,1,0.7563918000087142,,,,,,,,,,,,,,,,,,,,,,,,,,,,,,,,,,,,,010,001,2023-11-21_16h21.36.433,ETproject_Chi_2023.1.1,2023.1.1,60.015688101552,
28,Month,一月,四月,,Vert,late,down,image/Chi_late.png,"[0, 0.4]","[0, -0.4]",3,congruent,,,,,,,,,,,,,,,,,,,,,,,,,,,,,,,,,,,,,,0,22,22,9,,,,,,,,,,,,,,,,,,,,,,,,,,,,,932.7813840000308,1.0142959000077099,933.7861690000282,933.8693792000413,934.6692942000227,934.7691233000369,934.7691233000369,934.7691233000369,down,1,1.607298799965065,,,,,,,,,,,,,,,,,,,,,,,,,,,,,,,,,,,,,010,001,2023-11-21_16h21.36.433,ETproject_Chi_2023.1.1,2023.1.1,60.015688101552,
39,Month,六月,三月,,Hori,early,right,image/Chi_early.png,"[-0.4, 0]","[0.4, 0]",3,incongruent,,,,,,,,,,,,,,,,,,,,,,,,,,,,,,,,,,,,,,0,23,23,26,,,,,,,,,,,,,,,,,,,,,,,,,,,,,936.4098616000265,0.9990604000049643,937.4181477000238,937.5016918000183,938.3013412000146,938.4013904000167,938.4013904000167,938.4013904000167,right,1,1.2301985999802127,,,,,,,,,,,,,,,,,,,,,,,,,,,,,,,,,,,,,010,001,2023-11-21_16h21.36.433,ETproject_Chi_2023.1.1,2023.1.1,60.015688101552,
18,Month,二月,六月,,Vert,early,up,image/Chi_early.png,"[0, 0.4]","[0, -0.4]",4,congruent,,,,,,,,,,,,,,,,,,,,,,,,,,,,,,,,,,,,,,0,24,24,25,,,,,,,,,,,,,,,,,,,,,,,,,,,,,939.6590603000368,1.0116216999595053,940.6673606000259,940.75054800004,941.5502154999995,941.6501723999972,941.6501723999972,941.6501723999972,up,1,1.2540522000053898,,,,,,,,,,,,,,,,,,,,,,,,,,,,,,,,,,,,,010,001,2023-11-21_16h21.36.433,ETproject_Chi_2023.1.1,2023.1.1,60.015688101552,
111,Week,星期一,星期四,,Vert,early,up,image/Chi_early.png,"[0, 0.4]","[0, -0.4]",3,congruent,,,,,,,,,,,,,,,,,,,,,,,,,,,,,,,,,,,,,,0,25,25,16,,,,,,,,,,,,,,,,,,,,,,,,,,,,,942.944044600008,1.0094084999873303,943.9494821000262,944.0327516000252,944.8325025000377,944.9325320000062,944.9325320000062,944.9325320000062,up,1,1.1320261000073515,,,,,,,,,,,,,,,,,,,,,,,,,,,,,,,,,,,,,010,001,2023-11-21_16h21.36.433,ETproject_Chi_2023.1.1,2023.1.1,60.015688101552,
20,Month,十月 ,十二月,,Hori,late,right,image/Chi_late.png,"[-0.4, 0]","[0.4, 0]",2,congruent,,,,,,,,,,,,,,,,,,,,,,,,,,,,,,,,,,,,,,0,26,26,24,,,,,,,,,,,,,,,,,,,,,,,,,,,,,946.0951174000511,1.0117604000261053,947.0984955000458,947.1818407000392,947.9814686000464,948.0815164000378,948.0815164000378,948.0815164000378,right,1,0.8549584999564104,,,,,,,,,,,,,,,,,,,,,,,,,,,,,,,,,,,,,010,001,2023-11-21_16h21.36.433,ETproject_Chi_2023.1.1,2023.1.1,60.015688101552,
100,Week,星期四,星期六,,Hori,early,left,image/Chi_early.png,"[-0.4, 0]","[0.4, 0]",2,congruent,,,,,,,,,,,,,,,,,,,,,,,,,,,,,,,,,,,,,,0,27,27,11,,,,,,,,,,,,,,,,,,,,,,,,,,,,,948.9752472999971,1.0126719000400044,949.9810061000171,950.0642858000356,950.8640603000531,950.9638437000103,950.9638437000103,950.9638437000103,left,1,1.684547399985604,,,,,,,,,,,,,,,,,,,,,,,,,,,,,,,,,,,,,010,001,2023-11-21_16h21.36.433,ETproject_Chi_2023.1.1,2023.1.1,60.015688101552,
147,Week,星期五,星期二,,Vert,late,up,image/Chi_late.png,"[0, 0.4]","[0, -0.4]",3,incongruent,,,,,,,,,,,,,,,,,,,,,,,,,,,,,,,,,,,,,,0,28,28,21,,,,,,,,,,,,,,,,,,,,,,,,,,,,,952.7004915000289,1.0105351000092924,953.7130743000307,953.7794699000078,954.5793293000315,954.6792034000391,954.6792034000391,954.6792034000391,up,1,1.265257199993357,,,,,,,,,,,,,,,,,,,,,,,,,,,,,,,,,,,,,010,001,2023-11-21_16h21.36.433,ETproject_Chi_2023.1.1,2023.1.1,60.015688101552,
48,Month,五月,四月,,Hori,early,right,image/Chi_early.png,"[-0.4, 0]","[0.4, 0]",1,incongruent,,,,,,,,,,,,,,,,,,,,,,,,,,,,,,,,,,,,,,0,29,29,37,,,,,,,,,,,,,,,,,,,,,,,,,,,,,956.9692767000524,1.0156289000296965,957.9782915000105,958.061555000022,958.8611570000066,958.9611740999972,958.9611740999972,958.9611740999972,right,1,1.3432399000157602,,,,,,,,,,,,,,,,,,,,,,,,,,,,,,,,,,,,,010,001,2023-11-21_16h21.36.433,ETproject_Chi_2023.1.1,2023.1.1,60.015688101552,
132,Week,星期三 ,星期一,,Hori,late,left,image/Chi_late.png,"[-0.4, 0]","[0.4, 0]",2,incongruent,,,,,,,,,,,,,,,,,,,,,,,,,,,,,,,,,,,,,,0,30,30,2,,,,,,,,,,,,,,,,,,,,,,,,,,,,,960.3410770000191,1.01271410001209,961.343728900014,961.4270689000259,962.2268368000514,962.3269108000095,962.3269108000095,962.3269108000095,left,1,0.9606659999699332,,,,,,,,,,,,,,,,,,,,,,,,,,,,,,,,,,,,,010,001,2023-11-21_16h21.36.433,ETproject_Chi_2023.1.1,2023.1.1,60.015688101552,
135,Week,星期日,星期四,,Hori,late,left,image/Chi_late.png,"[-0.4, 0]","[0.4, 0]",3,incongruent,,,,,,,,,,,,,,,,,,,,,,,,,,,,,,,,,,,,,,0,31,31,12,,,,,,,,,,,,,,,,,,,,,,,,,,,,,963.3200312000117,1.0102996000205167,964.3262198000448,964.409505800053,965.2090426000068,965.309142800048,965.309142800048,965.309142800048,left,1,1.1946325000026263,,,,,,,,,,,,,,,,,,,,,,,,,,,,,,,,,,,,,010,001,2023-11-21_16h21.36.433,ETproject_Chi_2023.1.1,2023.1.1,60.015688101552,
133,Week,星期三 ,星期二,,Hori,late,left,image/Chi_late.png,"[-0.4, 0]","[0.4, 0]",1,incongruent,,,,,,,,,,,,,,,,,,,,,,,,,,,,,,,,,,,,,,0,32,32,30,,,,,,,,,,,,,,,,,,,,,,,,,,,,,966.534738700022,1.0107560000033118,967.5415819000336,967.6249948000186,968.4247206000146,968.5246436000452,968.5246436000452,968.5246436000452,left,1,0.9404186000465415,,,,,,,,,,,,,,,,,,,,,,,,,,,,,,,,,,,,,010,001,2023-11-21_16h21.36.433,ETproject_Chi_2023.1.1,2023.1.1,60.015688101552,
125,Week,星期四,星期一,,Hori,early,right,image/Chi_early.png,"[-0.4, 0]","[0.4, 0]",3,incongruent,,,,,,,,,,,,,,,,,,,,,,,,,,,,,,,,,,,,,,0,33,33,31,,,,,,,,,,,,,,,,,,,,,,,,,,,,,969.5082218000316,1.00915920000989,970.5072555000079,970.5906001999974,971.3903534000274,971.4904245000216,971.4904245000216,971.4904245000216,right,1,0.9258075999678113,,,,,,,,,,,,,,,,,,,,,,,,,,,,,,,,,,,,,010,001,2023-11-21_16h21.36.433,ETproject_Chi_2023.1.1,2023.1.1,60.015688101552,
112,Week,星期二,星期四,,Vert,early,up,image/Chi_early.png,"[0, 0.4]","[0, -0.4]",2,congruent,,,,,,,,,,,,,,,,,,,,,,,,,,,,,,,,,,,,,,0,34,34,41,,,,,,,,,,,,,,,,,,,,,,,,,,,,,973.4447106000152,1.0148356999852695,974.4561678000027,974.5397811000003,975.339111600013,975.4390591999982,975.4390591999982,975.4390591999982,up,1,1.009979500027839,,,,,,,,,,,,,,,,,,,,,,,,,,,,,,,,,,,,,010,001,2023-11-21_16h21.36.433,ETproject_Chi_2023.1.1,2023.1.1,60.015688101552,
33,Month,六月,九月 ,,Vert,late,down,image/Chi_late.png,"[0, 0.4]","[0, -0.4]",3,congruent,,,,,,,,,,,,,,,,,,,,,,,,,,,,,,,,,,,,,,0,35,35,44,,,,,,,,,,,,,,,,,,,,,,,,,,,,,977.4803487000172,1.0145299999858253,978.4882907000137,978.5712999000098,979.3709740000195,979.4710668000043,979.4710668000043,979.4710668000043,down,1,1.225996599998325,,,,,,,,,,,,,,,,,,,,,,,,,,,,,,,,,,,,,010,001,2023-11-21_16h21.36.433,ETproject_Chi_2023.1.1,2023.1.1,60.015688101552,
3,Month,三月,六月,,Hori,early,left,image/Chi_early.png,"[-0.4, 0]","[0.4, 0]",3,congruent,,,,,,,,,,,,,,,,,,,,,,,,,,,,,,,,,,,,,,0,36,36,0,,,,,,,,,,,,,,,,,,,,,,,,,,,,,980.7312593000242,1.013148199999705,981.7372572000022,981.820312099997,982.6201435000403,982.7200871999958,982.7200871999958,982.7200871999958,left,1,0.7766285000252537,,,,,,,,,,,,,,,,,,,,,,,,,,,,,,,,,,,,,010,001,2023-11-21_16h21.36.433,ETproject_Chi_2023.1.1,2023.1.1,60.015688101552,
152,Week,星期一,星期二,,Vert,late,up,image/Chi_late.png,"[0, 0.4]","[0, -0.4]",1,incongruent,,,,,,,,,,,,,,,,,,,,,,,,,,,,,,,,,,,,,,0,37,37,45,,,,,,,,,,,,,,,,,,,,,,,,,,,,,983.526891400048,1.0156737000215799,984.5362899000174,984.619402100041,985.4191289000446,985.519232599996,985.519232599996,985.519232599996,down,0,0.8660447000293061,,,,,,,,,,,,,,,,,,,,,,,,,,,,,,,,,,,,,010,001,2023-11-21_16h21.36.433,ETproject_Chi_2023.1.1,2023.1.1,60.015688101552,
