No,Category,earlier_stim,later_stim,conguency,orientation,instruction,corr_resp,Instruction_stim,early_position,late_position,distance,congruency,Image,Qustion,Response,CorrAns,Path,prac_block.thisRepN,prac_block.thisTrialN,prac_block.thisN,prac_block.thisIndex,trials.thisRepN,trials.thisTrialN,trials.thisN,trials.thisIndex,block1.thisRepN,block1.thisTrialN,block1.thisN,block1.thisIndex,break1.thisRepN,break1.thisTrialN,break1.thisN,break1.thisIndex,block2.thisRepN,block2.thisTrialN,block2.thisN,block2.thisIndex,break2.thisRepN,break2.thisTrialN,break2.thisN,break2.thisIndex,block3.thisRepN,block3.thisTrialN,block3.thisN,block3.thisIndex,break3.thisRepN,break3.thisTrialN,break3.thisN,break3.thisIndex,block4.thisRepN,block4.thisTrialN,block4.thisN,block4.thisIndex,intro_1.started,intro_1.stopped,intro_2.started,intro2_resp.started,intro2_resp.keys,intro2_resp.rt,Intro_3.started,intro3_resp.started,intro3_resp.keys,intro3_resp.rt,pracintro.started,pracintro_resp.started,pracintro_resp.keys,pracintro_resp.rt,image.started,early.started,RESP.started,late.started,pracfeedback.started,pracfeedback.stopped,text_4.started,text_4.stopped,text_5.started,baselinerecord.started,intro_5.started,intro5_resp.started,intro5_resp.keys,intro5_resp.rt,main_image_2.started,etRecord.started,main_image_2.stopped,fix.started,fix.stopped,main_early.started,ct_resp.started,main_late.started,ct_resp.keys,ct_resp.corr,ct_resp.rt,intro.started,intro2_resp_2.started,intro2_resp_2.keys,intro2_resp_2.rt,fengjing.started,text.started,fengjing.stopped,text.stopped,key_resp.started,text_2.started,text_3.started,key_resp.keys,key_resp.corr,key_resp.rt,intro_6.started,intro5_resp_2.started,intro5_resp_2.keys,intro5_resp_2.rt,intro_3.started,intro2_resp_3.started,intro2_resp_3.keys,intro2_resp_3.rt,intro_7.started,intro2_resp_5.started,intro2_resp_5.keys,intro2_resp_5.rt,intro_4.started,intro2_resp_4.started,intro2_resp_4.keys,intro2_resp_4.rt,intro_8.started,intro2_resp_6.started,intro2_resp_6.keys,intro2_resp_6.rt,theend.started,theend.stopped,participant,session,date,expName,psychopyVersion,frameRate,
,,,,,,,,,,,,,,,,,,,,,,,,,,,,,,,,,,,,,,,,,,,,,,,,,,,,,,47.15995879995171,49.17044839996379,49.17044839996379,49.17044839996379,space,2.563893900020048,,,,,,,,,,,,,,,,,,,,,,,,,,,,,,,,,,,,,,,,,,,,,,,,,,,,,,,,,,,,,,,,,,,,,,011,001,2023-11-22_16h21.12.612,ETproject_Chi_2023.1.1,2023.1.1,60.07359014880508,
,,,,,,,,,,,,,,,,,,,,,,,,,,,,,,,,,,,,,,,,,,,,,,,,,,,,,,,,,,,,51.752784200012684,51.752784200012684,space,2.909760699956678,,,,,,,,,,,,,,,,,,,,,,,,,,,,,,,,,,,,,,,,,,,,,,,,,,,,,,,,,,,,,,,,,,011,001,2023-11-22_16h21.12.612,ETproject_Chi_2023.1.1,2023.1.1,60.07359014880508,
8,practice,星期六,星期五,incongruent,Vert,late,up,image/Chi_late.png,"[0, 0.4]","[0, -0.4]",,,,,,,,0,0,0,0,0,0,0,7,,,,,,,,,,,,,,,,,,,,,,,,,,,,,,,,,,,,,,,54.71797250001691,54.71797250001691,space,2.607939299894497,57.40945799998008,58.366800599964336,58.366800599964336,58.366800599964336,60.53612790000625,,,,,,,,,,,,,,,,,,,,,,,,,,,,,,,,,,,,,,,,,,,,,,,,,,,,,,,,,011,001,2023-11-22_16h21.12.612,ETproject_Chi_2023.1.1,2023.1.1,60.07359014880508,
3,practice,星期一,星期二,congruent,Vert,early,up,image/Chi_early.png,"[0, 0.4]","[0, -0.4]",,,,,,,,0,0,0,0,0,1,1,2,,,,,,,,,,,,,,,,,,,,,,,,,,,,,,,,,,,,,,,,,,,61.554818099946715,62.54877500003204,62.54877500003204,62.54877500003204,64.61501149996184,65.61629399994854,,,,,,,,,,,,,,,,,,,,,,,,,,,,,,,,,,,,,,,,,,,,,,,,,,,,,,,,011,001,2023-11-22_16h21.12.612,ETproject_Chi_2023.1.1,2023.1.1,60.07359014880508,
1,practice,星期三 ,星期四,congruent,Hori,early,left,image/Chi_early.png,"[-0.4, 0]","[0.4, 0]",,,,,,,,0,0,0,0,0,2,2,0,,,,,,,,,,,,,,,,,,,,,,,,,,,,,,,,,,,,,,,,,,,65.61629399994854,66.63108399999328,66.63108399999328,66.63108399999328,68.03041979996487,69.0363301000325,,,,,,,,,,,,,,,,,,,,,,,,,,,,,,,,,,,,,,,,,,,,,,,,,,,,,,,,011,001,2023-11-22_16h21.12.612,ETproject_Chi_2023.1.1,2023.1.1,60.07359014880508,
4,practice,星期日,星期一,congruent,Vert,late,down,image/Chi_late.png,"[0, 0.4]","[0, -0.4]",,,,,,,,0,0,0,0,0,3,3,3,,,,,,,,,,,,,,,,,,,,,,,,,,,,,,,,,,,,,,,,,,,69.0363301000325,70.04643029998988,70.04643029998988,70.04643029998988,71.64695969992317,72.64883920003194,,,,,,,,,,,,,,,,,,,,,,,,,,,,,,,,,,,,,,,,,,,,,,,,,,,,,,,,011,001,2023-11-22_16h21.12.612,ETproject_Chi_2023.1.1,2023.1.1,60.07359014880508,
2,practice,星期五,星期六,congruent,Hori,late,right,image/Chi_late.png,"[-0.4, 0]","[0.4, 0]",,,,,,,,0,0,0,0,0,4,4,1,,,,,,,,,,,,,,,,,,,,,,,,,,,,,,,,,,,,,,,,,,,72.64883920003194,73.66176829999313,73.66176829999313,73.66176829999313,74.81184340000618,75.81576989998575,,,,,,,,,,,,,,,,,,,,,,,,,,,,,,,,,,,,,,,,,,,,,,,,,,,,,,,,011,001,2023-11-22_16h21.12.612,ETproject_Chi_2023.1.1,2023.1.1,60.07359014880508,
5,practice,星期二,星期一,incongruent,Hori,early,right,image/Chi_early.png,"[-0.4, 0]","[0.4, 0]",,,,,,,,0,0,0,0,0,5,5,4,,,,,,,,,,,,,,,,,,,,,,,,,,,,,,,,,,,,,,,,,,,75.81576989998575,76.827585299965,76.827585299965,76.827585299965,77.82731409999542,78.83334280003328,,,,,,,,,,,,,,,,,,,,,,,,,,,,,,,,,,,,,,,,,,,,,,,,,,,,,,,,011,001,2023-11-22_16h21.12.612,ETproject_Chi_2023.1.1,2023.1.1,60.07359014880508,
6,practice,星期四,星期三 ,incongruent,Hori,late,left,image/Chi_late.png,"[-0.4, 0]","[0.4, 0]",,,,,,,,0,0,0,0,0,6,6,5,,,,,,,,,,,,,,,,,,,,,,,,,,,,,,,,,,,,,,,,,,,78.83334280003328,79.8432570999721,79.8432570999721,79.8432570999721,81.00974449992646,82.01588369999081,,,,,,,,,,,,,,,,,,,,,,,,,,,,,,,,,,,,,,,,,,,,,,,,,,,,,,,,011,001,2023-11-22_16h21.12.612,ETproject_Chi_2023.1.1,2023.1.1,60.07359014880508,
7,practice,星期三 ,星期二,incongruent,Vert,early,down,image/Chi_early.png,"[0, 0.4]","[0, -0.4]",,,,,,,,0,0,0,0,0,7,7,6,,,,,,,,,,,,,,,,,,,,,,,,,,,,,,,,,,,,,,,,,,,82.01588369999081,83.02548860001843,83.02548860001843,83.02548860001843,83.94210650003515,84.94168319995515,,,,,,,,,,,,,,,,,,,,,,,,,,,,,,,,,,,,,,,,,,,,,,,,,,,,,,,,011,001,2023-11-22_16h21.12.612,ETproject_Chi_2023.1.1,2023.1.1,60.07359014880508,
,,,,,,,,,,,,,,,,,,0,0,0,0,,,,,,,,,,,,,,,,,,,,,,,,,,,,,,,,,,,,,,,,,,,,,,,,,,,,,,,,,,,,,,,,,,,,,,,,,,,,,,,,,,,,,,,,,,,,,,,,,,,,,,,,,,,,011,001,2023-11-22_16h21.12.612,ETproject_Chi_2023.1.1,2023.1.1,60.07359014880508,
,,,,,,,,,,,,,,,,,,,,,,,,,,,,,,,,,,,,,,,,,,,,,,,,,,,,,,,,,,,,,,,,,,,,,,,,,,84.94168319995515,87.94055499997921,87.94055499997921,3.0146866999566555,91.95584449998569,91.95584449998569,space,3.7060810999246314,,,,,,,,,,,,,,,,,,,,,,,,,,,,,,,,,,,,,,,,,,,,,,,,011,001,2023-11-22_16h21.12.612,ETproject_Chi_2023.1.1,2023.1.1,60.07359014880508,
13,Month,四月,七月,,Hori,late,right,image/Chi_late.png,"[-0.4, 0]","[0.4, 0]",3,congruent,,,,,,,,,,,,,,0,0,0,41,,,,,,,,,,,,,,,,,,,,,,,,,,,,,,,,,,,,,,,,,,,,,,,,,,,,,95.71084519999567,0.9993236000882462,96.72121039999183,96.78759359999094,97.58744060003664,97.68726099992637,97.68726099992637,97.68726099992637,right,1,1.663372699986212,,,,,,,,,,,,,,,,,,,,,,,,,,,,,,,,,,,,,011,001,2023-11-22_16h21.12.612,ETproject_Chi_2023.1.1,2023.1.1,60.07359014880508,
125,Week,星期三 ,星期一,,Hori,early,right,image/Chi_early.png,"[-0.4, 0]","[0.4, 0]",2,incongruent,,,,,,,,,,,,,,0,1,1,5,,,,,,,,,,,,,,,,,,,,,,,,,,,,,,,,,,,,,,,,,,,,,,,,,,,,,99.3890883999411,1.0097790999570861,100.40312869998161,100.46977700002026,101.26942739996593,101.36936849995982,101.36936849995982,101.36936849995982,right,1,1.6607723999768496,,,,,,,,,,,,,,,,,,,,,,,,,,,,,,,,,,,,,011,001,2023-11-22_16h21.12.612,ETproject_Chi_2023.1.1,2023.1.1,60.07359014880508,
141,Week,星期五,星期三 ,,Vert,early,down,image/Chi_early.png,"[0, 0.4]","[0, -0.4]",2,incongruent,,,,,,,,,,,,,,0,2,2,15,,,,,,,,,,,,,,,,,,,,,,,,,,,,,,,,,,,,,,,,,,,,,,,,,,,,,103.06346049997956,1.0113266999833286,104.06846740003675,104.15182249993086,104.95170839992352,105.05165269994177,105.05165269994177,105.05165269994177,down,1,0.986497399979271,,,,,,,,,,,,,,,,,,,,,,,,,,,,,,,,,,,,,011,001,2023-11-22_16h21.12.612,ETproject_Chi_2023.1.1,2023.1.1,60.07359014880508,
34,Month,六月,二月,,Hori,early,right,image/Chi_early.png,"[-0.4, 0]","[0.4, 0]",4,incongruent,,,,,,,,,,,,,,0,3,3,21,,,,,,,,,,,,,,,,,,,,,,,,,,,,,,,,,,,,,,,,,,,,,,,,,,,,,106.07770279992837,1.012948999996297,107.08424240001477,107.1675715999445,107.96724499994889,108.06720809999388,108.06720809999388,108.06720809999388,right,1,0.9059651999268681,,,,,,,,,,,,,,,,,,,,,,,,,,,,,,,,,,,,,011,001,2023-11-22_16h21.12.612,ETproject_Chi_2023.1.1,2023.1.1,60.07359014880508,
23,Month,七月,十一月 ,,Vert,early,up,image/Chi_early.png,"[0, 0.4]","[0, -0.4]",4,congruent,,,,,,,,,,,,,,0,4,4,48,,,,,,,,,,,,,,,,,,,,,,,,,,,,,,,,,,,,,,,,,,,,,,,,,,,,,109.01628239999991,1.011254100012593,110.0165721999947,110.09998759999871,110.8996979999356,110.99957889993675,110.99957889993675,110.99957889993675,up,1,1.1672669999534264,,,,,,,,,,,,,,,,,,,,,,,,,,,,,,,,,,,,,011,001,2023-11-22_16h21.12.612,ETproject_Chi_2023.1.1,2023.1.1,60.07359014880508,
49,Month,七月,四月,,Hori,late,left,image/Chi_late.png,"[-0.4, 0]","[0.4, 0]",3,incongruent,,,,,,,,,,,,,,0,5,5,38,,,,,,,,,,,,,,,,,,,,,,,,,,,,,,,,,,,,,,,,,,,,,,,,,,,,,112.2159727999242,1.0102814000565559,113.21562989999074,113.29868190002162,114.09846699994523,114.19868329993915,114.19868329993915,114.19868329993915,left,1,0.9753560000099242,,,,,,,,,,,,,,,,,,,,,,,,,,,,,,,,,,,,,011,001,2023-11-22_16h21.12.612,ETproject_Chi_2023.1.1,2023.1.1,60.07359014880508,
75,Month,十月 ,九月 ,,Vert,early,down,image/Chi_early.png,"[0, 0.4]","[0, -0.4]",1,incongruent,,,,,,,,,,,,,,0,6,6,1,,,,,,,,,,,,,,,,,,,,,,,,,,,,,,,,,,,,,,,,,,,,,,,,,,,,,115.2146020999644,1.0114940999774262,116.21448840002995,116.29785919992719,117.0975150000304,117.1977250999771,117.1977250999771,117.1977250999771,down,1,1.1672612000256777,,,,,,,,,,,,,,,,,,,,,,,,,,,,,,,,,,,,,011,001,2023-11-22_16h21.12.612,ETproject_Chi_2023.1.1,2023.1.1,60.07359014880508,
106,Week,星期三 ,星期六,,Hori,late,right,image/Chi_late.png,"[-0.4, 0]","[0.4, 0]",3,congruent,,,,,,,,,,,,,,0,7,7,3,,,,,,,,,,,,,,,,,,,,,,,,,,,,,,,,,,,,,,,,,,,,,,,,,,,,,119.40783789998386,1.0148242000723258,120.41278649994638,120.49668119999114,121.29626079997979,121.39622530003544,121.39622530003544,121.39622530003544,right,1,2.0341595000354573,,,,,,,,,,,,,,,,,,,,,,,,,,,,,,,,,,,,,011,001,2023-11-22_16h21.12.612,ETproject_Chi_2023.1.1,2023.1.1,60.07359014880508,
142,Week,星期五,星期四,,Vert,early,down,image/Chi_early.png,"[0, 0.4]","[0, -0.4]",1,incongruent,,,,,,,,,,,,,,0,8,8,0,,,,,,,,,,,,,,,,,,,,,,,,,,,,,,,,,,,,,,,,,,,,,,,,,,,,,124.47237149998546,1.0154244999866933,125.47811229992658,125.56162699998822,126.36111659999005,126.46118939993903,126.46118939993903,126.46118939993903,down,1,1.393266300088726,,,,,,,,,,,,,,,,,,,,,,,,,,,,,,,,,,,,,011,001,2023-11-22_16h21.12.612,ETproject_Chi_2023.1.1,2023.1.1,60.07359014880508,
112,Week,星期二,星期三 ,,Vert,early,up,image/Chi_early.png,"[0, 0.4]","[0, -0.4]",1,congruent,,,,,,,,,,,,,,0,9,9,31,,,,,,,,,,,,,,,,,,,,,,,,,,,,,,,,,,,,,,,,,,,,,,,,,,,,,127.89154129999224,1.0103544000303373,128.89370649994817,128.97687849996146,129.7765473999316,129.87660269998014,129.87660269998014,129.87660269998014,up,1,1.0009594999719411,,,,,,,,,,,,,,,,,,,,,,,,,,,,,,,,,,,,,011,001,2023-11-22_16h21.12.612,ETproject_Chi_2023.1.1,2023.1.1,60.07359014880508,
29,Month,七月,八月,,Vert,early,up,image/Chi_early.png,"[0, 0.4]","[0, -0.4]",1,congruent,,,,,,,,,,,,,,0,10,10,2,,,,,,,,,,,,,,,,,,,,,,,,,,,,,,,,,,,,,,,,,,,,,,,,,,,,,130.92666100000497,1.0113045999314636,131.92595679999795,132.0093302000314,132.80908189993352,132.90911829995457,132.90911829995457,132.90911829995457,up,1,1.2801278999540955,,,,,,,,,,,,,,,,,,,,,,,,,,,,,,,,,,,,,011,001,2023-11-22_16h21.12.612,ETproject_Chi_2023.1.1,2023.1.1,60.07359014880508,
126,Week,星期三 ,星期二,,Hori,early,right,image/Chi_early.png,"[-0.4, 0]","[0.4, 0]",1,incongruent,,,,,,,,,,,,,,0,11,11,25,,,,,,,,,,,,,,,,,,,,,,,,,,,,,,,,,,,,,,,,,,,,,,,,,,,,,134.21931159996893,1.0115619000280276,135.22486610000487,135.30836459994316,136.1078999999445,136.208080100012,136.208080100012,136.208080100012,right,1,0.9417364000109956,,,,,,,,,,,,,,,,,,,,,,,,,,,,,,,,,,,,,011,001,2023-11-22_16h21.12.612,ETproject_Chi_2023.1.1,2023.1.1,60.07359014880508,
26,Month,六月,八月,,Vert,early,up,image/Chi_early.png,"[0, 0.4]","[0, -0.4]",2,congruent,,,,,,,,,,,,,,0,12,12,32,,,,,,,,,,,,,,,,,,,,,,,,,,,,,,,,,,,,,,,,,,,,,,,,,,,,,137.18795159994625,1.0107676000334322,138.19079629995394,138.27387229993474,139.07370279997122,139.17366919992492,139.17366919992492,139.17366919992492,up,1,1.0641735000535846,,,,,,,,,,,,,,,,,,,,,,,,,,,,,,,,,,,,,011,001,2023-11-22_16h21.12.612,ETproject_Chi_2023.1.1,2023.1.1,60.07359014880508,
101,Week,星期五,星期日,,Hori,early,left,image/Chi_early.png,"[-0.4, 0]","[0.4, 0]",2,congruent,,,,,,,,,,,,,,0,13,13,40,,,,,,,,,,,,,,,,,,,,,,,,,,,,,,,,,,,,,,,,,,,,,,,,,,,,,140.26523210003506,1.0109349000267684,141.27292230003513,141.35620959999505,142.1559481000295,142.25581190001685,142.25581190001685,142.25581190001685,left,1,1.158647600095719,,,,,,,,,,,,,,,,,,,,,,,,,,,,,,,,,,,,,011,001,2023-11-22_16h21.12.612,ETproject_Chi_2023.1.1,2023.1.1,60.07359014880508,
34,Month,七月,十月 ,,Vert,late,down,image/Chi_late.png,"[0, 0.4]","[0, -0.4]",3,congruent,,,,,,,,,,,,,,0,14,14,11,,,,,,,,,,,,,,,,,,,,,,,,,,,,,,,,,,,,,,,,,,,,,,,,,,,,,143.4604895999655,1.0115637999260798,144.47182640002575,144.53845929994714,145.33822139992844,145.4383164999308,145.4383164999308,145.4383164999308,down,1,1.0644054000731558,,,,,,,,,,,,,,,,,,,,,,,,,,,,,,,,,,,,,011,001,2023-11-22_16h21.12.612,ETproject_Chi_2023.1.1,2023.1.1,60.07359014880508,
24,Month,四月,六月,,Vert,early,up,image/Chi_early.png,"[0, 0.4]","[0, -0.4]",2,congruent,,,,,,,,,,,,,,0,15,15,8,,,,,,,,,,,,,,,,,,,,,,,,,,,,,,,,,,,,,,,,,,,,,,,,,,,,,146.5392501000315,1.0111956000328064,147.5376997999847,147.62092140002642,148.42053230002057,148.52057559997775,148.52057559997775,148.52057559997775,down,0,1.3733394000446424,,,,,,,,,,,,,,,,,,,,,,,,,,,,,,,,,,,,,011,001,2023-11-22_16h21.12.612,ETproject_Chi_2023.1.1,2023.1.1,60.07359014880508,
120,Week,星期三 ,星期六,,Vert,late,down,image/Chi_late.png,"[0, 0.4]","[0, -0.4]",3,congruent,,,,,,,,,,,,,,0,16,16,34,,,,,,,,,,,,,,,,,,,,,,,,,,,,,,,,,,,,,,,,,,,,,,,,,,,,,149.93231359997299,1.0122863999567926,150.93658889993094,151.019834500039,151.81962259998545,151.9195840000175,151.9195840000175,151.9195840000175,down,1,0.8374229999026284,,,,,,,,,,,,,,,,,,,,,,,,,,,,,,,,,,,,,011,001,2023-11-22_16h21.12.612,ETproject_Chi_2023.1.1,2023.1.1,60.07359014880508,
38,Month,八月,十月 ,,Vert,late,down,image/Chi_late.png,"[0, 0.4]","[0, -0.4]",2,congruent,,,,,,,,,,,,,,0,17,17,37,,,,,,,,,,,,,,,,,,,,,,,,,,,,,,,,,,,,,,,,,,,,,,,,,,,,,152.7967147999443,1.0125042999861762,153.8023222000338,153.88560719997622,154.68520579999313,154.78514479997102,154.78514479997102,154.78514479997102,up,0,1.5971154000144452,,,,,,,,,,,,,,,,,,,,,,,,,,,,,,,,,,,,,011,001,2023-11-22_16h21.12.612,ETproject_Chi_2023.1.1,2023.1.1,60.07359014880508,
150,Week,星期六,星期五,,Vert,late,up,image/Chi_late.png,"[0, 0.4]","[0, -0.4]",1,incongruent,,,,,,,,,,,,,,0,18,18,23,,,,,,,,,,,,,,,,,,,,,,,,,,,,,,,,,,,,,,,,,,,,,,,,,,,,,157.40775539993774,1.0146866999566555,158.41740199993365,158.50053489999846,159.3004774999572,159.40032969997264,159.40032969997264,159.40032969997264,up,1,1.349743300001137,,,,,,,,,,,,,,,,,,,,,,,,,,,,,,,,,,,,,011,001,2023-11-22_16h21.12.612,ETproject_Chi_2023.1.1,2023.1.1,60.07359014880508,
132,Week,星期四,星期一,,Hori,late,left,image/Chi_late.png,"[-0.4, 0]","[0.4, 0]",3,incongruent,,,,,,,,,,,,,,0,19,19,19,,,,,,,,,,,,,,,,,,,,,,,,,,,,,,,,,,,,,,,,,,,,,,,,,,,,,160.77917669992894,1.0098811999196187,161.78274769999553,161.8662156999344,162.66589519998524,162.76592159993015,162.76592159993015,162.76592159993015,left,1,1.3681690000230446,,,,,,,,,,,,,,,,,,,,,,,,,,,,,,,,,,,,,011,001,2023-11-22_16h21.12.612,ETproject_Chi_2023.1.1,2023.1.1,60.07359014880508,
16,Month,六月,八月,,Hori,late,right,image/Chi_late.png,"[-0.4, 0]","[0.4, 0]",2,congruent,,,,,,,,,,,,,,0,20,20,30,,,,,,,,,,,,,,,,,,,,,,,,,,,,,,,,,,,,,,,,,,,,,,,,,,,,,164.1816661999328,1.011506599956192,165.1816608000081,165.26517359993886,166.06472000002395,166.16479009995237,166.16479009995237,166.16479009995237,right,1,1.7136012999108061,,,,,,,,,,,,,,,,,,,,,,,,,,,,,,,,,,,,,011,001,2023-11-22_16h21.12.612,ETproject_Chi_2023.1.1,2023.1.1,60.07359014880508,
62,Month,十月 ,六月,,Vert,late,up,image/Chi_late.png,"[0, 0.4]","[0, -0.4]",4,incongruent,,,,,,,,,,,,,,0,21,21,27,,,,,,,,,,,,,,,,,,,,,,,,,,,,,,,,,,,,,,,,,,,,,,,,,,,,,167.9049085000297,1.0134101000148803,168.91400779993273,168.99704930000007,169.7967124999268,169.89689319999889,169.89689319999889,169.89689319999889,up,1,1.9973440999165177,,,,,,,,,,,,,,,,,,,,,,,,,,,,,,,,,,,,,011,001,2023-11-22_16h21.12.612,ETproject_Chi_2023.1.1,2023.1.1,60.07359014880508,
1,Month,一月,二月 ,,Hori,early,left,image/Chi_early.png,"[-0.4, 0]","[0.4, 0]",1,congruent,,,,,,,,,,,,,,0,22,22,28,,,,,,,,,,,,,,,,,,,,,,,,,,,,,,,,,,,,,,,,,,,,,,,,,,,,,171.9305125999963,1.0110695000039414,172.92934949998744,173.01243370003067,173.81225790001918,173.91223080002237,173.91223080002237,173.91223080002237,left,1,0.7259335999842733,,,,,,,,,,,,,,,,,,,,,,,,,,,,,,,,,,,,,011,001,2023-11-22_16h21.12.612,ETproject_Chi_2023.1.1,2023.1.1,60.07359014880508,
118,Week,星期一,星期四,,Vert,late,down,image/Chi_late.png,"[0, 0.4]","[0, -0.4]",3,congruent,,,,,,,,,,,,,,0,23,23,45,,,,,,,,,,,,,,,,,,,,,,,,,,,,,,,,,,,,,,,,,,,,,,,,,,,,,174.67536709993146,1.0104425000026822,175.6784671000205,175.76142989995424,176.56130329996813,176.66125260002445,176.66125260002445,176.66125260002445,down,1,1.184322000015527,,,,,,,,,,,,,,,,,,,,,,,,,,,,,,,,,,,,,011,001,2023-11-22_16h21.12.612,ETproject_Chi_2023.1.1,2023.1.1,60.07359014880508,
107,Week,星期四,星期六,,Hori,late,right,image/Chi_late.png,"[-0.4, 0]","[0.4, 0]",2,congruent,,,,,,,,,,,,,,0,24,24,16,,,,,,,,,,,,,,,,,,,,,,,,,,,,,,,,,,,,,,,,,,,,,,,,,,,,,177.88604779995512,1.0121951999608427,178.89378849999048,178.97721279994585,179.77689929993358,179.87682469992433,179.87682469992433,179.87682469992433,right,1,1.0734125000890344,,,,,,,,,,,,,,,,,,,,,,,,,,,,,,,,,,,,,011,001,2023-11-22_16h21.12.612,ETproject_Chi_2023.1.1,2023.1.1,60.07359014880508,
143,Week,星期六,星期五,,Vert,early,down,image/Chi_early.png,"[0, 0.4]","[0, -0.4]",1,incongruent,,,,,,,,,,,,,,0,25,25,36,,,,,,,,,,,,,,,,,,,,,,,,,,,,,,,,,,,,,,,,,,,,,,,,,,,,,180.98778480000328,0.9990707000251859,181.99291689996608,182.0761243000161,182.87590169999748,182.97594249993563,182.97594249993563,182.97594249993563,down,1,1.9344617000315338,,,,,,,,,,,,,,,,,,,,,,,,,,,,,,,,,,,,,011,001,2023-11-22_16h21.12.612,ETproject_Chi_2023.1.1,2023.1.1,60.07359014880508,
97,Week,星期一,星期四,,Hori,early,left,image/Chi_early.png,"[-0.4, 0]","[0.4, 0]",3,congruent,,,,,,,,,,,,,,0,26,26,20,,,,,,,,,,,,,,,,,,,,,,,,,,,,,,,,,,,,,,,,,,,,,,,,,,,,,185.9491754999617,1.015092400019057,186.95798850001302,187.04149340000004,187.84096209995914,187.9409089999972,187.9409089999972,187.9409089999972,left,1,1.1130679999478161,,,,,,,,,,,,,,,,,,,,,,,,,,,,,,,,,,,,,011,001,2023-11-22_16h21.12.612,ETproject_Chi_2023.1.1,2023.1.1,60.07359014880508,
6,Month,六月,十月 ,,Hori,early,left,image/Chi_early.png,"[-0.4, 0]","[0.4, 0]",4,congruent,,,,,,,,,,,,,,0,27,27,29,,,,,,,,,,,,,,,,,,,,,,,,,,,,,,,,,,,,,,,,,,,,,,,,,,,,,189.0965775999939,1.0109384000534192,190.10684769996442,190.1731296000071,190.9730653000297,191.07330279995222,191.07330279995222,191.07330279995222,left,1,1.3645652000559494,,,,,,,,,,,,,,,,,,,,,,,,,,,,,,,,,,,,,011,001,2023-11-22_16h21.12.612,ETproject_Chi_2023.1.1,2023.1.1,60.07359014880508,
99,Week,星期三 ,星期六,,Hori,early,left,image/Chi_early.png,"[-0.4, 0]","[0.4, 0]",3,congruent,,,,,,,,,,,,,,0,28,28,6,,,,,,,,,,,,,,,,,,,,,,,,,,,,,,,,,,,,,,,,,,,,,,,,,,,,,192.47213499993086,1.0108884000219405,193.47239989996888,193.55586309998762,194.35540420003235,194.4554978000233,194.4554978000233,194.4554978000233,left,1,1.0534434000728652,,,,,,,,,,,,,,,,,,,,,,,,,,,,,,,,,,,,,011,001,2023-11-22_16h21.12.612,ETproject_Chi_2023.1.1,2023.1.1,60.07359014880508,
114,Week,星期四,星期日,,Vert,early,up,image/Chi_early.png,"[0, 0.4]","[0, -0.4]",3,congruent,,,,,,,,,,,,,,0,29,29,12,,,,,,,,,,,,,,,,,,,,,,,,,,,,,,,,,,,,,,,,,,,,,,,,,,,,,196.5450419000117,1.0143233000999317,197.5543367000064,197.6377745999489,198.4373286999762,198.53749729995616,198.53749729995616,198.53749729995616,up,1,0.9330494999885559,,,,,,,,,,,,,,,,,,,,,,,,,,,,,,,,,,,,,011,001,2023-11-22_16h21.12.612,ETproject_Chi_2023.1.1,2023.1.1,60.07359014880508,
98,Week,星期二,星期三 ,,Hori,early,left,image/Chi_early.png,"[-0.4, 0]","[0.4, 0]",1,congruent,,,,,,,,,,,,,,0,30,30,49,,,,,,,,,,,,,,,,,,,,,,,,,,,,,,,,,,,,,,,,,,,,,,,,,,,,,199.5000339000253,1.0114346999907866,200.50345159997232,200.58657879999373,201.3867123000091,201.48642249999102,201.48642249999102,201.48642249999102,left,1,0.6948799999663606,,,,,,,,,,,,,,,,,,,,,,,,,,,,,,,,,,,,,011,001,2023-11-22_16h21.12.612,ETproject_Chi_2023.1.1,2023.1.1,60.07359014880508,
116,Week,星期六,星期日,,Vert,early,up,image/Chi_early.png,"[0, 0.4]","[0, -0.4]",1,congruent,,,,,,,,,,,,,,0,31,31,10,,,,,,,,,,,,,,,,,,,,,,,,,,,,,,,,,,,,,,,,,,,,,,,,,,,,,202.21244439994916,1.0131286999676377,203.21916879992932,203.30241909995675,204.10212449997198,204.20222810003906,204.20222810003906,204.20222810003906,up,1,0.9565014000982046,,,,,,,,,,,,,,,,,,,,,,,,,,,,,,,,,,,,,011,001,2023-11-22_16h21.12.612,ETproject_Chi_2023.1.1,2023.1.1,60.07359014880508,
136,Week,星期日,星期五,,Hori,late,left,image/Chi_late.png,"[-0.4, 0]","[0.4, 0]",2,incongruent,,,,,,,,,,,,,,0,32,32,17,,,,,,,,,,,,,,,,,,,,,,,,,,,,,,,,,,,,,,,,,,,,,,,,,,,,,205.20451009995304,1.0107917999848723,206.21818790002726,206.284982400015,207.08458319993224,207.1845984000247,207.1845984000247,207.1845984000247,left,1,1.0453051999211311,,,,,,,,,,,,,,,,,,,,,,,,,,,,,,,,,,,,,011,001,2023-11-22_16h21.12.612,ETproject_Chi_2023.1.1,2023.1.1,60.07359014880508,
24,Month,六月,九月 ,,Vert,early,up,image/Chi_early.png,"[0, 0.4]","[0, -0.4]",3,congruent,,,,,,,,,,,,,,0,33,33,33,,,,,,,,,,,,,,,,,,,,,,,,,,,,,,,,,,,,,,,,,,,,,,,,,,,,,208.263214699924,1.0157872000709176,209.2672246999573,209.35085960000288,210.1504342999542,210.25036099995486,210.25036099995486,210.25036099995486,up,1,1.227011700044386,,,,,,,,,,,,,,,,,,,,,,,,,,,,,,,,,,,,,011,001,2023-11-22_16h21.12.612,ETproject_Chi_2023.1.1,2023.1.1,60.07359014880508,
112,Week,星期二,星期五,,Vert,early,up,image/Chi_early.png,"[0, 0.4]","[0, -0.4]",3,congruent,,,,,,,,,,,,,,0,34,34,24,,,,,,,,,,,,,,,,,,,,,,,,,,,,,,,,,,,,,,,,,,,,,,,,,,,,,211.51039599999785,1.0110909999348223,212.51599049998913,212.5995099999709,213.39929039997514,213.49921929999255,213.49921929999255,213.49921929999255,up,1,1.4100584000116214,,,,,,,,,,,,,,,,,,,,,,,,,,,,,,,,,,,,,011,001,2023-11-22_16h21.12.612,ETproject_Chi_2023.1.1,2023.1.1,60.07359014880508,
150,Week,星期日,星期五,,Vert,late,up,image/Chi_late.png,"[0, 0.4]","[0, -0.4]",2,incongruent,,,,,,,,,,,,,,0,35,35,46,,,,,,,,,,,,,,,,,,,,,,,,,,,,,,,,,,,,,,,,,,,,,,,,,,,,,215.94474870001432,1.0154035999439657,216.94799579994287,217.03134059999138,217.8309763999423,217.93118329998106,217.93118329998106,217.93118329998106,down,0,1.0434439999517053,,,,,,,,,,,,,,,,,,,,,,,,,,,,,,,,,,,,,011,001,2023-11-22_16h21.12.612,ETproject_Chi_2023.1.1,2023.1.1,60.07359014880508,
148,Week,星期六,星期三 ,,Vert,late,up,image/Chi_late.png,"[0, 0.4]","[0, -0.4]",3,incongruent,,,,,,,,,,,,,,0,36,36,26,,,,,,,,,,,,,,,,,,,,,,,,,,,,,,,,,,,,,,,,,,,,,,,,,,,,,219.00293920002878,0.9993490000488237,220.01368319999892,220.0969021000201,220.89666740002576,220.99692249996588,220.99692249996588,220.99692249996588,down,0,1.7371932999230921,,,,,,,,,,,,,,,,,,,,,,,,,,,,,,,,,,,,,011,001,2023-11-22_16h21.12.612,ETproject_Chi_2023.1.1,2023.1.1,60.07359014880508,
50,Month,八月,五月,,Hori,late,left,image/Chi_late.png,"[-0.4, 0]","[0.4, 0]",3,incongruent,,,,,,,,,,,,,,0,37,37,35,,,,,,,,,,,,,,,,,,,,,,,,,,,,,,,,,,,,,,,,,,,,,,,,,,,,,223.76977879996412,1.0156651999568567,224.77879719994962,224.86198749998584,225.66176539997105,225.76178850000724,225.76178850000724,225.76178850000724,left,1,1.4354916999582201,,,,,,,,,,,,,,,,,,,,,,,,,,,,,,,,,,,,,011,001,2023-11-22_16h21.12.612,ETproject_Chi_2023.1.1,2023.1.1,60.07359014880508,
127,Week,星期五,星期三 ,,Hori,early,right,image/Chi_early.png,"[-0.4, 0]","[0.4, 0]",2,incongruent,,,,,,,,,,,,,,0,38,38,13,,,,,,,,,,,,,,,,,,,,,,,,,,,,,,,,,,,,,,,,,,,,,,,,,,,,,227.24530890001915,1.0111762000015005,228.24436659994535,228.3274717000313,229.1273931999458,229.22744609997608,229.22744609997608,229.22744609997608,right,1,1.722411899943836,,,,,,,,,,,,,,,,,,,,,,,,,,,,,,,,,,,,,011,001,2023-11-22_16h21.12.612,ETproject_Chi_2023.1.1,2023.1.1,60.07359014880508,
12,Week,星期日,星期四,,Vert,late,up,image/Chi_late.png,"[0, 0.4]","[0, -0.4]",3,incongruent,,,,,,,,,,,,,,0,39,39,9,,,,,,,,,,,,,,,,,,,,,,,,,,,,,,,,,,,,,,,,,,,,,,,,,,,,,230.99191869993228,1.0109111000783741,231.9931815000018,232.07646979996935,232.87609859998338,232.97612789995037,232.97612789995037,232.97612789995037,up,1,1.1413670000620186,,,,,,,,,,,,,,,,,,,,,,,,,,,,,,,,,,,,,011,001,2023-11-22_16h21.12.612,ETproject_Chi_2023.1.1,2023.1.1,60.07359014880508,
77,Month,九月 ,七月,,Vert,late,up,image/Chi_late.png,"[0, 0.4]","[0, -0.4]",2,incongruent,,,,,,,,,,,,,,0,40,40,43,,,,,,,,,,,,,,,,,,,,,,,,,,,,,,,,,,,,,,,,,,,,,,,,,,,,,234.15894120000303,1.0111737999832258,235.15859849995468,235.24197009997442,236.04159969999455,236.14195630000904,236.14195630000904,236.14195630000904,up,1,1.6885773999383673,,,,,,,,,,,,,,,,,,,,,,,,,,,,,,,,,,,,,011,001,2023-11-22_16h21.12.612,ETproject_Chi_2023.1.1,2023.1.1,60.07359014880508,
139,Week,星期四,星期一,,Vert,early,down,image/Chi_early.png,"[0, 0.4]","[0, -0.4]",3,incongruent,,,,,,,,,,,,,,0,41,41,7,,,,,,,,,,,,,,,,,,,,,,,,,,,,,,,,,,,,,,,,,,,,,,,,,,,,,237.87286040000618,1.0145455999299884,238.8741184999235,238.95744939998258,239.75705529993866,239.85718289995566,239.85718289995566,239.85718289995566,down,1,1.6682967999950051,,,,,,,,,,,,,,,,,,,,,,,,,,,,,,,,,,,,,011,001,2023-11-22_16h21.12.612,ETproject_Chi_2023.1.1,2023.1.1,60.07359014880508,
20,Month,四月,八月,,Vert,early,up,image/Chi_early.png,"[0, 0.4]","[0, -0.4]",4,congruent,,,,,,,,,,,,,,0,42,42,4,,,,,,,,,,,,,,,,,,,,,,,,,,,,,,,,,,,,,,,,,,,,,,,,,,,,,241.57038669998292,1.0116055000107735,242.5731498999521,242.6562108999351,243.45593069994356,243.5559409999987,243.5559409999987,243.5559409999987,up,1,2.850686899968423,,,,,,,,,,,,,,,,,,,,,,,,,,,,,,,,,,,,,011,001,2023-11-22_16h21.12.612,ETproject_Chi_2023.1.1,2023.1.1,60.07359014880508,
46,Month,四月,一月,,Hori,late,left,image/Chi_late.png,"[-0.4, 0]","[0.4, 0]",3,incongruent,,,,,,,,,,,,,,0,43,43,14,,,,,,,,,,,,,,,,,,,,,,,,,,,,,,,,,,,,,,,,,,,,,,,,,,,,,246.45168980001472,1.0108110000146553,247.45468580001034,247.53795909998007,248.33751480001956,248.43766179995146,248.43766179995146,248.43766179995146,left,1,1.1363874999806285,,,,,,,,,,,,,,,,,,,,,,,,,,,,,,,,,,,,,011,001,2023-11-22_16h21.12.612,ETproject_Chi_2023.1.1,2023.1.1,60.07359014880508,
58,Month,六月,二月,,Vert,late,up,image/Chi_late.png,"[0, 0.4]","[0, -0.4]",4,incongruent,,,,,,,,,,,,,,0,44,44,18,,,,,,,,,,,,,,,,,,,,,,,,,,,,,,,,,,,,,,,,,,,,,,,,,,,,,250.6098326999927,1.0141390000935644,251.61995259998366,251.70326789992396,252.50286809995305,252.6030819999287,252.6030819999287,252.6030819999287,up,1,1.9387479000724852,,,,,,,,,,,,,,,,,,,,,,,,,,,,,,,,,,,,,011,001,2023-11-22_16h21.12.612,ETproject_Chi_2023.1.1,2023.1.1,60.07359014880508,
59,Month,七月,三月,,Vert,late,up,image/Chi_late.png,"[0, 0.4]","[0, -0.4]",4,incongruent,,,,,,,,,,,,,,0,45,45,47,,,,,,,,,,,,,,,,,,,,,,,,,,,,,,,,,,,,,,,,,,,,,,,,,,,,,254.5798025999684,1.0112470999592915,255.58532960002776,255.6687039999524,256.4682015000144,256.5685199999716,256.5685199999716,256.5685199999716,up,1,1.3892996000358835,,,,,,,,,,,,,,,,,,,,,,,,,,,,,,,,,,,,,011,001,2023-11-22_16h21.12.612,ETproject_Chi_2023.1.1,2023.1.1,60.07359014880508,
101,Week,星期五,星期六,,Hori,early,left,image/Chi_early.png,"[-0.4, 0]","[0.4, 0]",1,congruent,,,,,,,,,,,,,,0,46,46,42,,,,,,,,,,,,,,,,,,,,,,,,,,,,,,,,,,,,,,,,,,,,,,,,,,,,,257.99749640002847,1.0120497999014333,259.0007363000186,259.084127399954,259.8838028999744,259.9839061999228,259.9839061999228,259.9839061999228,left,1,1.0855785000603646,,,,,,,,,,,,,,,,,,,,,,,,,,,,,,,,,,,,,011,001,2023-11-22_16h21.12.612,ETproject_Chi_2023.1.1,2023.1.1,60.07359014880508,
45,Month,九月 ,五月,,Hori,late,left,image/Chi_late.png,"[-0.4, 0]","[0.4, 0]",4,incongruent,,,,,,,,,,,,,,0,47,47,39,,,,,,,,,,,,,,,,,,,,,,,,,,,,,,,,,,,,,,,,,,,,,,,,,,,,,261.11503400001675,1.0120007999939844,262.1164361999836,262.1998120000353,262.9995244999882,263.0997841999633,263.0997841999633,263.0997841999633,left,1,1.4428030999843031,,,,,,,,,,,,,,,,,,,,,,,,,,,,,,,,,,,,,011,001,2023-11-22_16h21.12.612,ETproject_Chi_2023.1.1,2023.1.1,60.07359014880508,
63,Month,十二月,九月 ,,Vert,early,down,image/Chi_early.png,"[0, 0.4]","[0, -0.4]",3,incongruent,,,,,,,,,,,,,,0,48,48,22,,,,,,,,,,,,,,,,,,,,,,,,,,,,,,,,,,,,,,,,,,,,,,,,,,,,,265.57275209994987,0.9995352999540046,266.5816945999395,266.66494439996313,267.4646375000011,267.56457509996835,267.56457509996835,267.56457509996835,down,1,1.6656284000491723,,,,,,,,,,,,,,,,,,,,,,,,,,,,,,,,,,,,,011,001,2023-11-22_16h21.12.612,ETproject_Chi_2023.1.1,2023.1.1,60.07359014880508,
78,Month,十月 ,八月,,Vert,late,up,image/Chi_late.png,"[0, 0.4]","[0, -0.4]",2,incongruent,,,,,,,,,,,,,,0,49,49,44,,,,,,,,,,,,,,,,,,,,,,,,,,,,,,,,,,,,,,,,,,,,,,,,,,,,,269.2643564000027,1.0113087999634445,270.2636951999739,270.3469329000218,271.1468926999951,271.2467433999991,271.2467433999991,271.2467433999991,up,1,3.215221200021915,,,,,,,,,,,,,,,,,,,,,,,,,,,,,,,,,,,,,011,001,2023-11-22_16h21.12.612,ETproject_Chi_2023.1.1,2023.1.1,60.07359014880508,
,,,,,,,,,,,,,,,,,,,,,,,,,,,,,,,,,,,,,,,,,,,,,,,,,,,,,,,,,,,,,,,,,,,,,,,,,,,,,,,,,,,,,,,,,,,,,274.47931910003535,274.47931910003535,space,3.622908700024709,,,,,,,,,,,,,,,,,,,,,,,,,,,,,,,,,011,001,2023-11-22_16h21.12.612,ETproject_Chi_2023.1.1,2023.1.1,60.07359014880508,
,,,,,,,,,,,,,Spring 3.jpg,这是夏天吗？,否,Right,Break_material/Image/Spring 3.jpg,,,,,,,,,,,,,0,0,0,2,,,,,,,,,,,,,,,,,,,,,,,,,,,,,,,,,,,,,,,,,,,,,,,,,,,,,,,,,,,,,,,,278.2268343999749,282.1140183999669,282.22661459993105,284.12604849995114,284.12604849995114,284.12604849995114,284.12604849995114,None,0,,,,,,,,,,,,,,,,,,,,,,,,011,001,2023-11-22_16h21.12.612,ETproject_Chi_2023.1.1,2023.1.1,60.07359014880508,
,,,,,,,,,,,,,Spring 1.jpg,这是春天吗？,是,Left,Break_material/Image/Spring 1.jpg,,,,,,,,,,,,,0,1,1,0,,,,,,,,,,,,,,,,,,,,,,,,,,,,,,,,,,,,,,,,,,,,,,,,,,,,,,,,,,,,,,,,289.2016512999544,293.1265922000166,293.2061481999699,295.1389675999526,295.1222726999549,295.1222726999549,295.1222726999549,left,0,0.586873900028877,,,,,,,,,,,,,,,,,,,,,,,011,001,2023-11-22_16h21.12.612,ETproject_Chi_2023.1.1,2023.1.1,60.07359014880508,
,,,,,,,,,,,,,Spring 5.jpg,这是冬天吗？,否,Right,Break_material/Image/Spring 5.jpg,,,,,,,,,,,,,0,2,2,4,,,,,,,,,,,,,,,,,,,,,,,,,,,,,,,,,,,,,,,,,,,,,,,,,,,,,,,,,,,,,,,,296.2930128999287,299.72600170003716,300.30408040003385,301.7367880999809,301.7367880999809,301.7367880999809,301.7367880999809,right,0,0.5888841999694705,,,,,,,,,,,,,,,,,,,,,,,011,001,2023-11-22_16h21.12.612,ETproject_Chi_2023.1.1,2023.1.1,60.07359014880508,
,,,,,,,,,,,,,Spring 4.jpg,这是秋天吗？,否,Right,Break_material/Image/Spring 4.jpg,,,,,,,,,,,,,0,3,3,3,,,,,,,,,,,,,,,,,,,,,,,,,,,,,,,,,,,,,,,,,,,,,,,,,,,,,,,,,,,,,,,,302.7292792999651,306.3393127999734,306.7356169000268,308.3511814000085,308.3511814000085,308.3511814000085,308.3511814000085,left,0,0.6072940999874845,,,,,,,,,,,,,,,,,,,,,,,011,001,2023-11-22_16h21.12.612,ETproject_Chi_2023.1.1,2023.1.1,60.07359014880508,
,,,,,,,,,,,,,Spring 2.jpg,这是冬天吗？,否,Right,Break_material/Image/Spring 2.jpg,,,,,,,,,,,,,0,4,4,1,,,,,,,,,,,,,,,,,,,,,,,,,,,,,,,,,,,,,,,,,,,,,,,,,,,,,,,,,,,,,,,,309.09384430001955,312.9699214999564,313.0995992999524,314.9823753000237,314.9823753000237,314.9823753000237,314.9823753000237,right,0,0.6558443999383599,,,,,,,,,,,,,,,,,,,,,,,011,001,2023-11-22_16h21.12.612,ETproject_Chi_2023.1.1,2023.1.1,60.07359014880508,
,,,,,,,,,,,,,Spring 6.jpg,这是春天吗？,是,Left,Break_material/Image/Spring 6.jpg,,,,,,,,,,,,,0,5,5,5,,,,,,,,,,,,,,,,,,,,,,,,,,,,,,,,,,,,,,,,,,,,,,,,,,,,,,,,,,,,,,,,316.31558259995654,319.6522373999469,320.313859899994,321.6635084999725,321.6635084999725,321.6635084999725,321.6635084999725,left,0,0.638814999954775,,,,,,,,,,,,,,,,,,,,,,,011,001,2023-11-22_16h21.12.612,ETproject_Chi_2023.1.1,2023.1.1,60.07359014880508,
,,,,,,,,,,,,,,,,,,,,,,,,,,,,,,,,,,,,,,,,,,,,,,,,,,,,,,,,,,,,,,,,,,,,,,,,,,,,,,,,,,,,,,,,,,,,,,,,,,,,,,,,,,,322.33007829997223,322.33007829997223,space,4.348204499925487,,,,,,,,,,,,,,,,,,,011,001,2023-11-22_16h21.12.612,ETproject_Chi_2023.1.1,2023.1.1,60.07359014880508,
98,Week,星期二,星期五,,Hori,early,left,image/Chi_early.png,"[-0.4, 0]","[0.4, 0]",3,congruent,,,,,,,,,,,,,,,,,,,,,,0,0,0,39,,,,,,,,,,,,,,,,,,,,,,,,,,,,,,,,,,,,,,,,,,,,,326.72879339999054,0.999305900069885,327.72822519997135,327.7947998000309,328.5944766999455,328.6946866000071,328.6946866000071,328.6946866000071,left,1,1.9188527999212965,,,,,,,,,,,,,,,,,,,,,,,,,,,,,,,,,,,,,011,001,2023-11-22_16h21.12.612,ETproject_Chi_2023.1.1,2023.1.1,60.07359014880508,
25,Month,一月,五月,,Vert,late,down,image/Chi_late.png,"[0, 0.4]","[0, -0.4]",4,congruent,,,,,,,,,,,,,,,,,,,,,,0,1,1,23,,,,,,,,,,,,,,,,,,,,,,,,,,,,,,,,,,,,,,,,,,,,,330.65651759994216,1.0125662999926135,331.66027999995276,331.7436716000084,332.5432538000168,332.643336399924,332.643336399924,332.643336399924,down,1,0.8737648000242189,,,,,,,,,,,,,,,,,,,,,,,,,,,,,,,,,,,,,011,001,2023-11-22_16h21.12.612,ETproject_Chi_2023.1.1,2023.1.1,60.07359014880508,
14,Month,四月,六月,,Hori,late,right,image/Chi_late.png,"[-0.4, 0]","[0.4, 0]",2,congruent,,,,,,,,,,,,,,,,,,,,,,0,2,2,26,,,,,,,,,,,,,,,,,,,,,,,,,,,,,,,,,,,,,,,,,,,,,333.54782099998556,0.9996987999184057,334.55957189993933,334.6424520999426,335.4424404000165,335.54230730002746,335.54230730002746,335.54230730002746,right,1,1.2157673999899998,,,,,,,,,,,,,,,,,,,,,,,,,,,,,,,,,,,,,011,001,2023-11-22_16h21.12.612,ETproject_Chi_2023.1.1,2023.1.1,60.07359014880508,
111,Week,星期一,星期三 ,,Vert,early,up,image/Chi_early.png,"[0, 0.4]","[0, -0.4]",2,congruent,,,,,,,,,,,,,,,,,,,,,,0,3,3,8,,,,,,,,,,,,,,,,,,,,,,,,,,,,,,,,,,,,,,,,,,,,,336.7901007999899,1.011468300013803,337.79166410001926,337.8749629999511,338.674628400011,338.7747936999658,338.7747936999658,338.7747936999658,up,1,0.9754269999684766,,,,,,,,,,,,,,,,,,,,,,,,,,,,,,,,,,,,,011,001,2023-11-22_16h21.12.612,ETproject_Chi_2023.1.1,2023.1.1,60.07359014880508,
123,Week,星期六,星期日,,Vert,late,down,image/Chi_late.png,"[0, 0.4]","[0, -0.4]",1,congruent,,,,,,,,,,,,,,,,,,,,,,0,4,4,31,,,,,,,,,,,,,,,,,,,,,,,,,,,,,,,,,,,,,,,,,,,,,339.7811913000187,0.9994870000518858,340.7905084999511,340.873821199988,341.67358579998836,341.7736593999434,341.7736593999434,341.7736593999434,down,1,1.7195286999922246,,,,,,,,,,,,,,,,,,,,,,,,,,,,,,,,,,,,,011,001,2023-11-22_16h21.12.612,ETproject_Chi_2023.1.1,2023.1.1,60.07359014880508,
42,Month,九月 ,十月 ,,Vert,late,down,image/Chi_late.png,"[0, 0.4]","[0, -0.4]",1,congruent,,,,,,,,,,,,,,,,,,,,,,0,5,5,0,,,,,,,,,,,,,,,,,,,,,,,,,,,,,,,,,,,,,,,,,,,,,343.53154609992635,1.0112095000222325,344.53928879997693,344.622733599972,345.42244789993856,345.5223965999903,345.5223965999903,345.5223965999903,down,1,1.3312649999279529,,,,,,,,,,,,,,,,,,,,,,,,,,,,,,,,,,,,,011,001,2023-11-22_16h21.12.612,ETproject_Chi_2023.1.1,2023.1.1,60.07359014880508,
18,Month,九月 ,十二月,,Hori,late,right,image/Chi_late.png,"[-0.4, 0]","[0.4, 0]",3,congruent,,,,,,,,,,,,,,,,,,,,,,0,6,6,9,,,,,,,,,,,,,,,,,,,,,,,,,,,,,,,,,,,,,,,,,,,,,346.8824200000381,1.010591399972327,347.8882553000003,347.9714273000136,348.77132489997894,348.8714510999853,348.8714510999853,348.8714510999853,right,1,2.582269600010477,,,,,,,,,,,,,,,,,,,,,,,,,,,,,,,,,,,,,011,001,2023-11-22_16h21.12.612,ETproject_Chi_2023.1.1,2023.1.1,60.07359014880508,
65,Month,七月,五月,,Vert,early,down,image/Chi_early.png,"[0, 0.4]","[0, -0.4]",2,incongruent,,,,,,,,,,,,,,,,,,,,,,0,7,7,11,,,,,,,,,,,,,,,,,,,,,,,,,,,,,,,,,,,,,,,,,,,,,351.48679240001366,1.0117740000132471,352.48661050002556,352.56989889999386,353.37009260000195,353.46975479996763,353.46975479996763,353.46975479996763,down,1,2.864280699985102,,,,,,,,,,,,,,,,,,,,,,,,,,,,,,,,,,,,,011,001,2023-11-22_16h21.12.612,ETproject_Chi_2023.1.1,2023.1.1,60.07359014880508,
1,Month,一月,四月,,Hori,early,left,image/Chi_early.png,"[-0.4, 0]","[0.4, 0]",3,congruent,,,,,,,,,,,,,,,,,,,,,,0,8,8,34,,,,,,,,,,,,,,,,,,,,,,,,,,,,,,,,,,,,,,,,,,,,,356.3644638999831,1.0101536000147462,357.36838909995276,357.4517554999329,358.2514846000122,358.35138390003704,358.35138390003704,358.35138390003704,left,1,2.2551589000504464,,,,,,,,,,,,,,,,,,,,,,,,,,,,,,,,,,,,,011,001,2023-11-22_16h21.12.612,ETproject_Chi_2023.1.1,2023.1.1,60.07359014880508,
34,Month,四月,六月,,Vert,late,down,image/Chi_late.png,"[0, 0.4]","[0, -0.4]",2,congruent,,,,,,,,,,,,,,,,,,,,,,0,9,9,38,,,,,,,,,,,,,,,,,,,,,,,,,,,,,,,,,,,,,,,,,,,,,360.6578988999827,1.0108291999204084,361.666955600027,361.7336199999554,362.53323349996936,362.63335849996656,362.63335849996656,362.63335849996656,down,1,0.9562348000472412,,,,,,,,,,,,,,,,,,,,,,,,,,,,,,,,,,,,,011,001,2023-11-22_16h21.12.612,ETproject_Chi_2023.1.1,2023.1.1,60.07359014880508,
21,Month,五月,九月 ,,Vert,early,up,image/Chi_early.png,"[0, 0.4]","[0, -0.4]",4,congruent,,,,,,,,,,,,,,,,,,,,,,0,10,10,46,,,,,,,,,,,,,,,,,,,,,,,,,,,,,,,,,,,,,,,,,,,,,363.6295814999612,0.9992826000088826,364.63260409992654,364.7159575999249,365.5157224999275,365.615960599971,365.615960599971,365.615960599971,up,1,2.333384900004603,,,,,,,,,,,,,,,,,,,,,,,,,,,,,,,,,,,,,011,001,2023-11-22_16h21.12.612,ETproject_Chi_2023.1.1,2023.1.1,60.07359014880508,
134,Week,星期五,星期三 ,,Hori,late,left,image/Chi_late.png,"[-0.4, 0]","[0.4, 0]",2,incongruent,,,,,,,,,,,,,,,,,,,,,,0,11,11,47,,,,,,,,,,,,,,,,,,,,,,,,,,,,,,,,,,,,,,,,,,,,,367.9968615999678,1.0120907000964507,368.99793239997234,369.08126989996526,369.8809120999649,369.9810513999546,369.9810513999546,369.9810513999546,right,0,1.152883299975656,,,,,,,,,,,,,,,,,,,,,,,,,,,,,,,,,,,,,011,001,2023-11-22_16h21.12.612,ETproject_Chi_2023.1.1,2023.1.1,60.07359014880508,
55,Month,四月,一月,,Vert,early,down,image/Chi_early.png,"[0, 0.4]","[0, -0.4]",3,incongruent,,,,,,,,,,,,,,,,,,,,,,0,12,12,22,,,,,,,,,,,,,,,,,,,,,,,,,,,,,,,,,,,,,,,,,,,,,371.1738467999967,1.0153810000047088,372.18005660001654,372.2634844999993,373.0634135999717,373.1631334000267,373.1631334000267,373.1631334000267,down,1,3.0910786000313237,,,,,,,,,,,,,,,,,,,,,,,,,,,,,,,,,,,,,011,001,2023-11-22_16h21.12.612,ETproject_Chi_2023.1.1,2023.1.1,60.07359014880508,
11,Month,十一月 ,十二月,,Hori,early,left,image/Chi_early.png,"[-0.4, 0]","[0.4, 0]",1,congruent,,,,,,,,,,,,,,,,,,,,,,0,13,13,28,,,,,,,,,,,,,,,,,,,,,,,,,,,,,,,,,,,,,,,,,,,,,376.2873978000134,1.01313990005292,377.295119300019,377.37858090002555,378.17820510000456,378.2782250000164,378.2782250000164,378.2782250000164,left,1,1.1595685000065714,,,,,,,,,,,,,,,,,,,,,,,,,,,,,,,,,,,,,011,001,2023-11-22_16h21.12.612,ETproject_Chi_2023.1.1,2023.1.1,60.07359014880508,
84,Month,八月,七月,,Vert,late,up,image/Chi_late.png,"[0, 0.4]","[0, -0.4]",1,incongruent,,,,,,,,,,,,,,,,,,,,,,0,14,14,18,,,,,,,,,,,,,,,,,,,,,,,,,,,,,,,,,,,,,,,,,,,,,379.47094519995153,0.9991786000318825,380.47754089999944,380.5609609999228,381.3605746999383,381.4606277999701,381.4606277999701,381.4606277999701,up,1,1.9453421999933198,,,,,,,,,,,,,,,,,,,,,,,,,,,,,,,,,,,,,011,001,2023-11-22_16h21.12.612,ETproject_Chi_2023.1.1,2023.1.1,60.07359014880508,
102,Week,星期六,星期日,,Hori,early,left,image/Chi_early.png,"[-0.4, 0]","[0.4, 0]",1,congruent,,,,,,,,,,,,,,,,,,,,,,0,15,15,15,,,,,,,,,,,,,,,,,,,,,,,,,,,,,,,,,,,,,,,,,,,,,384.4346712999977,1.0145127000287175,385.4424490999663,385.5258171999594,386.3255200999556,386.4253992999438,386.4253992999438,386.4253992999438,left,1,1.3804379000794142,,,,,,,,,,,,,,,,,,,,,,,,,,,,,,,,,,,,,011,001,2023-11-22_16h21.12.612,ETproject_Chi_2023.1.1,2023.1.1,60.07359014880508,
70,Month,十月 ,七月,,Vert,late,up,image/Chi_late.png,"[0, 0.4]","[0, -0.4]",3,incongruent,,,,,,,,,,,,,,,,,,,,,,0,16,16,19,,,,,,,,,,,,,,,,,,,,,,,,,,,,,,,,,,,,,,,,,,,,,388.8370280000381,1.0146647000219673,389.84098899993114,389.9243768999586,390.72402449999936,390.8241108999355,390.8241108999355,390.8241108999355,up,1,1.5103516000090167,,,,,,,,,,,,,,,,,,,,,,,,,,,,,,,,,,,,,011,001,2023-11-22_16h21.12.612,ETproject_Chi_2023.1.1,2023.1.1,60.07359014880508,
46,Month,八月,六月,,Hori,early,right,image/Chi_early.png,"[-0.4, 0]","[0.4, 0]",2,incongruent,,,,,,,,,,,,,,,,,,,,,,0,17,17,6,,,,,,,,,,,,,,,,,,,,,,,,,,,,,,,,,,,,,,,,,,,,,392.3720553999301,1.0119822999695316,393.3732075999724,393.45647460001055,394.2561342000263,394.35613670002203,394.35613670002203,394.35613670002203,right,1,3.7540143999503925,,,,,,,,,,,,,,,,,,,,,,,,,,,,,,,,,,,,,011,001,2023-11-22_16h21.12.612,ETproject_Chi_2023.1.1,2023.1.1,60.07359014880508,
72,Month,四月,二月,,Vert,late,up,image/Chi_late.png,"[0, 0.4]","[0, -0.4]",2,incongruent,,,,,,,,,,,,,,,,,,,,,,0,18,18,41,,,,,,,,,,,,,,,,,,,,,,,,,,,,,,,,,,,,,,,,,,,,,398.1509235999547,0.9991168000269681,399.1545889999252,399.2380029000342,400.03760989999864,400.1377285999479,400.1377285999479,400.1377285999479,up,1,1.8206072000321,,,,,,,,,,,,,,,,,,,,,,,,,,,,,,,,,,,,,011,001,2023-11-22_16h21.12.612,ETproject_Chi_2023.1.1,2023.1.1,60.07359014880508,
26,Month,八月,十一月 ,,Vert,early,up,image/Chi_early.png,"[0, 0.4]","[0, -0.4]",3,congruent,,,,,,,,,,,,,,,,,,,,,,0,19,19,44,,,,,,,,,,,,,,,,,,,,,,,,,,,,,,,,,,,,,,,,,,,,,402.998806699994,1.0148913000011817,404.00317519996315,404.08633870002814,404.88603399996646,404.98609309992753,404.98609309992753,404.98609309992753,up,1,0.9963429000927135,,,,,,,,,,,,,,,,,,,,,,,,,,,,,,,,,,,,,011,001,2023-11-22_16h21.12.612,ETproject_Chi_2023.1.1,2023.1.1,60.07359014880508,
59,Month,五月,四月,,Hori,late,left,image/Chi_late.png,"[-0.4, 0]","[0.4, 0]",1,incongruent,,,,,,,,,,,,,,,,,,,,,,0,20,20,12,,,,,,,,,,,,,,,,,,,,,,,,,,,,,,,,,,,,,,,,,,,,,406.0151520000072,1.0141333000501618,407.0187573999865,407.10205889993813,407.90181299997494,408.0019184999401,408.0019184999401,408.0019184999401,left,1,1.515499500092119,,,,,,,,,,,,,,,,,,,,,,,,,,,,,,,,,,,,,011,001,2023-11-22_16h21.12.612,ETproject_Chi_2023.1.1,2023.1.1,60.07359014880508,
141,Week,星期六,星期三 ,,Vert,early,down,image/Chi_early.png,"[0, 0.4]","[0, -0.4]",3,incongruent,,,,,,,,,,,,,,,,,,,,,,0,21,21,29,,,,,,,,,,,,,,,,,,,,,,,,,,,,,,,,,,,,,,,,,,,,,409.55054209998343,1.0103405000409111,410.5509927999228,410.6342689000303,411.434008799959,411.53400220000185,411.53400220000185,411.53400220000185,down,1,3.2800996999721974,,,,,,,,,,,,,,,,,,,,,,,,,,,,,,,,,,,,,011,001,2023-11-22_16h21.12.612,ETproject_Chi_2023.1.1,2023.1.1,60.07359014880508,
82,Month,六月,五月,,Vert,late,up,image/Chi_late.png,"[0, 0.4]","[0, -0.4]",1,incongruent,,,,,,,,,,,,,,,,,,,,,,0,22,22,33,,,,,,,,,,,,,,,,,,,,,,,,,,,,,,,,,,,,,,,,,,,,,414.84617649996653,1.0103079000255093,415.8490599000361,415.93248259997927,416.73216769995634,416.8322388000088,416.8322388000088,416.8322388000088,up,1,1.1180155000183731,,,,,,,,,,,,,,,,,,,,,,,,,,,,,,,,,,,,,011,001,2023-11-22_16h21.12.612,ETproject_Chi_2023.1.1,2023.1.1,60.07359014880508,
39,Month,九月 ,十一月 ,,Vert,late,down,image/Chi_late.png,"[0, 0.4]","[0, -0.4]",2,congruent,,,,,,,,,,,,,,,,,,,,,,0,23,23,14,,,,,,,,,,,,,,,,,,,,,,,,,,,,,,,,,,,,,,,,,,,,,417.9996754999738,1.0121484999544919,418.998077700031,419.0816076999763,419.8811532999389,419.98127200000454,419.98127200000454,419.98127200000454,down,1,1.9297295999713242,,,,,,,,,,,,,,,,,,,,,,,,,,,,,,,,,,,,,011,001,2023-11-22_16h21.12.612,ETproject_Chi_2023.1.1,2023.1.1,60.07359014880508,
142,Week,星期日,星期四,,Vert,early,down,image/Chi_early.png,"[0, 0.4]","[0, -0.4]",3,incongruent,,,,,,,,,,,,,,,,,,,,,,0,24,24,35,,,,,,,,,,,,,,,,,,,,,,,,,,,,,,,,,,,,,,,,,,,,,421.94393830001354,1.0128740000072867,422.94682870002,423.03033420001157,423.8299409999745,423.92986479995307,423.92986479995307,423.92986479995307,down,1,1.1323990999953821,,,,,,,,,,,,,,,,,,,,,,,,,,,,,,,,,,,,,011,001,2023-11-22_16h21.12.612,ETproject_Chi_2023.1.1,2023.1.1,60.07359014880508,
68,Month,十月 ,八月,,Vert,early,down,image/Chi_early.png,"[0, 0.4]","[0, -0.4]",2,incongruent,,,,,,,,,,,,,,,,,,,,,,0,25,25,48,,,,,,,,,,,,,,,,,,,,,,,,,,,,,,,,,,,,,,,,,,,,,425.0837704000296,1.0156188999535516,426.09584890003316,426.1790910999989,426.978845500038,427.0786397999618,427.0786397999618,427.0786397999618,down,1,1.3744183999951929,,,,,,,,,,,,,,,,,,,,,,,,,,,,,,,,,,,,,011,001,2023-11-22_16h21.12.612,ETproject_Chi_2023.1.1,2023.1.1,60.07359014880508,
7,Month,七月,十一月 ,,Hori,early,left,image/Chi_early.png,"[-0.4, 0]","[0.4, 0]",4,congruent,,,,,,,,,,,,,,,,,,,,,,0,26,26,49,,,,,,,,,,,,,,,,,,,,,,,,,,,,,,,,,,,,,,,,,,,,,429.48324840003625,1.0147858000127599,430.49433529993985,430.57755749998614,431.3773312999401,431.4773086999776,431.4773086999776,431.4773086999776,left,1,1.3679100000299513,,,,,,,,,,,,,,,,,,,,,,,,,,,,,,,,,,,,,011,001,2023-11-22_16h21.12.612,ETproject_Chi_2023.1.1,2023.1.1,60.07359014880508,
23,Month,一月,二月 ,,Vert,early,up,image/Chi_early.png,"[0, 0.4]","[0, -0.4]",1,congruent,,,,,,,,,,,,,,,,,,,,,,0,27,27,30,,,,,,,,,,,,,,,,,,,,,,,,,,,,,,,,,,,,,,,,,,,,,432.8838577999268,1.0150063000619411,433.8930734000169,433.9765318999998,434.77613769995514,434.87627070001327,434.87627070001327,434.87627070001327,up,1,1.0825917000183836,,,,,,,,,,,,,,,,,,,,,,,,,,,,,,,,,,,,,011,001,2023-11-22_16h21.12.612,ETproject_Chi_2023.1.1,2023.1.1,60.07359014880508,
60,Month,十二月,十月 ,,Hori,late,left,image/Chi_late.png,"[-0.4, 0]","[0.4, 0]",2,incongruent,,,,,,,,,,,,,,,,,,,,,,0,28,28,45,,,,,,,,,,,,,,,,,,,,,,,,,,,,,,,,,,,,,,,,,,,,,436.00106529996265,1.0141842999728397,437.0088678000029,437.0754582999507,437.87524950003717,437.9751943999436,437.9751943999436,437.9751943999436,left,1,1.3505582000361755,,,,,,,,,,,,,,,,,,,,,,,,,,,,,,,,,,,,,011,001,2023-11-22_16h21.12.612,ETproject_Chi_2023.1.1,2023.1.1,60.07359014880508,
126,Week,星期四,星期二,,Hori,early,right,image/Chi_early.png,"[-0.4, 0]","[0.4, 0]",2,incongruent,,,,,,,,,,,,,,,,,,,,,,0,29,29,24,,,,,,,,,,,,,,,,,,,,,,,,,,,,,,,,,,,,,,,,,,,,,439.36780959996395,0.9991707999724895,440.374346000026,440.4578506000107,441.2573403000133,441.35731330001727,441.35731330001727,441.35731330001727,right,1,1.455642499960959,,,,,,,,,,,,,,,,,,,,,,,,,,,,,,,,,,,,,011,001,2023-11-22_16h21.12.612,ETproject_Chi_2023.1.1,2023.1.1,60.07359014880508,
16,Month,七月,十月 ,,Hori,late,right,image/Chi_late.png,"[-0.4, 0]","[0.4, 0]",3,congruent,,,,,,,,,,,,,,,,,,,,,,0,30,30,43,,,,,,,,,,,,,,,,,,,,,,,,,,,,,,,,,,,,,,,,,,,,,442.8577396000037,1.0117973000742495,443.8565700999461,443.9401655999245,444.7396091999253,444.83986589999404,444.83986589999404,444.83986589999404,right,1,1.9025744999526069,,,,,,,,,,,,,,,,,,,,,,,,,,,,,,,,,,,,,011,001,2023-11-22_16h21.12.612,ETproject_Chi_2023.1.1,2023.1.1,60.07359014880508,
57,Month,六月,三月,,Vert,early,down,image/Chi_early.png,"[0, 0.4]","[0, -0.4]",3,incongruent,,,,,,,,,,,,,,,,,,,,,,0,31,31,4,,,,,,,,,,,,,,,,,,,,,,,,,,,,,,,,,,,,,,,,,,,,,446.78537940001115,1.0109365999232978,447.7885403999826,447.8718918999657,448.671824799967,448.77177679992747,448.77177679992747,448.77177679992747,down,1,1.7625683000078425,,,,,,,,,,,,,,,,,,,,,,,,,,,,,,,,,,,,,011,001,2023-11-22_16h21.12.612,ETproject_Chi_2023.1.1,2023.1.1,60.07359014880508,
6,Month,六月,九月 ,,Hori,early,left,image/Chi_early.png,"[-0.4, 0]","[0.4, 0]",3,congruent,,,,,,,,,,,,,,,,,,,,,,0,32,32,25,,,,,,,,,,,,,,,,,,,,,,,,,,,,,,,,,,,,,,,,,,,,,450.5576042999746,1.0155666000209749,451.57072299998254,451.654044099967,452.4538967999397,452.5537314999383,452.5537314999383,452.5537314999383,left,1,1.436101800063625,,,,,,,,,,,,,,,,,,,,,,,,,,,,,,,,,,,,,011,001,2023-11-22_16h21.12.612,ETproject_Chi_2023.1.1,2023.1.1,60.07359014880508,
126,Week,星期五,星期二,,Hori,early,right,image/Chi_early.png,"[-0.4, 0]","[0.4, 0]",3,incongruent,,,,,,,,,,,,,,,,,,,,,,0,33,33,17,,,,,,,,,,,,,,,,,,,,,,,,,,,,,,,,,,,,,,,,,,,,,454.02958860003855,1.0116138000739738,455.03614630002994,455.1196947999997,455.91921389999334,456.0193914999254,456.0193914999254,456.0193914999254,right,1,1.5069790000561625,,,,,,,,,,,,,,,,,,,,,,,,,,,,,,,,,,,,,011,001,2023-11-22_16h21.12.612,ETproject_Chi_2023.1.1,2023.1.1,60.07359014880508,
29,Month,五月,九月 ,,Vert,late,down,image/Chi_late.png,"[0, 0.4]","[0, -0.4]",4,congruent,,,,,,,,,,,,,,,,,,,,,,0,34,34,21,,,,,,,,,,,,,,,,,,,,,,,,,,,,,,,,,,,,,,,,,,,,,457.5667924999725,1.0119184999493882,458.568348199944,458.6518488000147,459.4513978000032,459.551413499983,459.551413499983,459.551413499983,down,1,1.4216452999971807,,,,,,,,,,,,,,,,,,,,,,,,,,,,,,,,,,,,,011,001,2023-11-22_16h21.12.612,ETproject_Chi_2023.1.1,2023.1.1,60.07359014880508,
4,Month,四月,六月,,Hori,early,left,image/Chi_early.png,"[-0.4, 0]","[0.4, 0]",2,congruent,,,,,,,,,,,,,,,,,,,,,,0,35,35,20,,,,,,,,,,,,,,,,,,,,,,,,,,,,,,,,,,,,,,,,,,,,,461.01501640002243,1.0122512000380084,462.0171214999864,462.1005441999296,462.9001758999657,463.0005069000181,463.0005069000181,463.0005069000181,left,1,1.4459928000578657,,,,,,,,,,,,,,,,,,,,,,,,,,,,,,,,,,,,,011,001,2023-11-22_16h21.12.612,ETproject_Chi_2023.1.1,2023.1.1,60.07359014880508,
57,Month,三月,二月,,Hori,late,left,image/Chi_late.png,"[-0.4, 0]","[0.4, 0]",1,incongruent,,,,,,,,,,,,,,,,,,,,,,0,36,36,13,,,,,,,,,,,,,,,,,,,,,,,,,,,,,,,,,,,,,,,,,,,,,464.48047900001984,1.0131314999889582,465.48271589993965,465.5661368999863,466.3657929999754,466.46579619997647,466.46579619997647,466.46579619997647,left,1,1.412659200024791,,,,,,,,,,,,,,,,,,,,,,,,,,,,,,,,,,,,,011,001,2023-11-22_16h21.12.612,ETproject_Chi_2023.1.1,2023.1.1,60.07359014880508,
10,Month,二月,六月,,Hori,late,right,image/Chi_late.png,"[-0.4, 0]","[0.4, 0]",4,congruent,,,,,,,,,,,,,,,,,,,,,,0,37,37,37,,,,,,,,,,,,,,,,,,,,,,,,,,,,,,,,,,,,,,,,,,,,,468.9042530999286,1.0146125999744982,469.9145536000142,469.9979877999285,470.79772429994773,470.8977508000098,470.8977508000098,470.8977508000098,right,1,2.1642588999820873,,,,,,,,,,,,,,,,,,,,,,,,,,,,,,,,,,,,,011,001,2023-11-22_16h21.12.612,ETproject_Chi_2023.1.1,2023.1.1,60.07359014880508,
16,Month,八月,十二月,,Hori,late,right,image/Chi_late.png,"[-0.4, 0]","[0.4, 0]",4,congruent,,,,,,,,,,,,,,,,,,,,,,0,38,38,27,,,,,,,,,,,,,,,,,,,,,,,,,,,,,,,,,,,,,,,,,,,,,474.08752049994655,1.014056000043638,475.09615939995274,475.17958829994313,475.97939130000304,476.0792424000101,476.0792424000101,476.0792424000101,right,1,1.0705333999358118,,,,,,,,,,,,,,,,,,,,,,,,,,,,,,,,,,,,,011,001,2023-11-22_16h21.12.612,ETproject_Chi_2023.1.1,2023.1.1,60.07359014880508,
43,Month,十月 ,七月,,Hori,early,right,image/Chi_early.png,"[-0.4, 0]","[0.4, 0]",3,incongruent,,,,,,,,,,,,,,,,,,,,,,0,39,39,7,,,,,,,,,,,,,,,,,,,,,,,,,,,,,,,,,,,,,,,,,,,,,477.2062534999568,1.0137053000507876,478.211924299947,478.2784221000038,479.0782419999596,479.17827159992885,479.17827159992885,479.17827159992885,left,0,4.130833900067955,,,,,,,,,,,,,,,,,,,,,,,,,,,,,,,,,,,,,011,001,2023-11-22_16h21.12.612,ETproject_Chi_2023.1.1,2023.1.1,60.07359014880508,
53,Month,五月,三月,,Hori,late,left,image/Chi_late.png,"[-0.4, 0]","[0.4, 0]",2,incongruent,,,,,,,,,,,,,,,,,,,,,,0,40,40,2,,,,,,,,,,,,,,,,,,,,,,,,,,,,,,,,,,,,,,,,,,,,,483.34102439996786,1.0108137000352144,484.34316119994037,484.42663849995006,485.2262916000327,485.32623849995434,485.32623849995434,485.32623849995434,left,1,0.9991186000406742,,,,,,,,,,,,,,,,,,,,,,,,,,,,,,,,,,,,,011,001,2023-11-22_16h21.12.612,ETproject_Chi_2023.1.1,2023.1.1,60.07359014880508,
48,Month,十月 ,八月,,Hori,early,right,image/Chi_early.png,"[-0.4, 0]","[0.4, 0]",2,incongruent,,,,,,,,,,,,,,,,,,,,,,0,41,41,32,,,,,,,,,,,,,,,,,,,,,,,,,,,,,,,,,,,,,,,,,,,,,486.3585678000236,1.0115666000638157,487.35888199997135,487.44218799995724,488.24210429994855,488.34223219996784,488.34223219996784,488.34223219996784,right,1,1.2483235000399873,,,,,,,,,,,,,,,,,,,,,,,,,,,,,,,,,,,,,011,001,2023-11-22_16h21.12.612,ETproject_Chi_2023.1.1,2023.1.1,60.07359014880508,
2,Month,二月,五月,,Hori,early,left,image/Chi_early.png,"[-0.4, 0]","[0.4, 0]",3,congruent,,,,,,,,,,,,,,,,,,,,,,0,42,42,36,,,,,,,,,,,,,,,,,,,,,,,,,,,,,,,,,,,,,,,,,,,,,490.6141795000294,1.014069400029257,491.6242297999561,491.7074250000296,492.50727269996423,492.60721529996954,492.60721529996954,492.60721529996954,left,1,1.4229016000172123,,,,,,,,,,,,,,,,,,,,,,,,,,,,,,,,,,,,,011,001,2023-11-22_16h21.12.612,ETproject_Chi_2023.1.1,2023.1.1,60.07359014880508,
108,Week,星期五,星期六,,Hori,late,right,image/Chi_late.png,"[-0.4, 0]","[0.4, 0]",1,congruent,,,,,,,,,,,,,,,,,,,,,,0,43,43,1,,,,,,,,,,,,,,,,,,,,,,,,,,,,,,,,,,,,,,,,,,,,,494.07112039998174,1.011726800003089,495.07304139994085,495.1562718999339,495.95612590003293,496.05610729998443,496.05610729998443,496.05610729998443,right,1,1.2542338001076132,,,,,,,,,,,,,,,,,,,,,,,,,,,,,,,,,,,,,011,001,2023-11-22_16h21.12.612,ETproject_Chi_2023.1.1,2023.1.1,60.07359014880508,
114,Week,星期四,星期五,,Vert,early,up,image/Chi_early.png,"[0, 0.4]","[0, -0.4]",1,congruent,,,,,,,,,,,,,,,,,,,,,,0,44,44,10,,,,,,,,,,,,,,,,,,,,,,,,,,,,,,,,,,,,,,,,,,,,,497.3497073999606,1.0126282999990508,498.3553857000079,498.438667899929,499.2383787999861,499.3383210999891,499.3383210999891,499.3383210999891,up,1,3.5797598999924958,,,,,,,,,,,,,,,,,,,,,,,,,,,,,,,,,,,,,011,001,2023-11-22_16h21.12.612,ETproject_Chi_2023.1.1,2023.1.1,60.07359014880508,
99,Week,星期三 ,星期五,,Hori,early,left,image/Chi_early.png,"[-0.4, 0]","[0.4, 0]",2,congruent,,,,,,,,,,,,,,,,,,,,,,0,45,45,3,,,,,,,,,,,,,,,,,,,,,,,,,,,,,,,,,,,,,,,,,,,,,502.9408521000296,1.015236199949868,503.95349769992754,504.0366726999637,504.83645970001817,504.93649140000343,504.93649140000343,504.93649140000343,left,1,0.9421473999973387,,,,,,,,,,,,,,,,,,,,,,,,,,,,,,,,,,,,,011,001,2023-11-22_16h21.12.612,ETproject_Chi_2023.1.1,2023.1.1,60.07359014880508,
61,Month,十月 ,七月,,Vert,early,down,image/Chi_early.png,"[0, 0.4]","[0, -0.4]",3,incongruent,,,,,,,,,,,,,,,,,,,,,,0,46,46,16,,,,,,,,,,,,,,,,,,,,,,,,,,,,,,,,,,,,,,,,,,,,,505.9095129999332,1.0143189000664279,506.919065300026,507.0024802000262,507.8023125999607,507.9021472999593,507.9021472999593,507.9021472999593,down,1,1.3354213000275195,,,,,,,,,,,,,,,,,,,,,,,,,,,,,,,,,,,,,011,001,2023-11-22_16h21.12.612,ETproject_Chi_2023.1.1,2023.1.1,60.07359014880508,
39,Month,十一月 ,七月,,Hori,early,right,image/Chi_early.png,"[-0.4, 0]","[0.4, 0]",4,incongruent,,,,,,,,,,,,,,,,,,,,,,0,47,47,40,,,,,,,,,,,,,,,,,,,,,,,,,,,,,,,,,,,,,,,,,,,,,509.27145989995915,1.0153317999793217,510.28469869995024,510.3682810999453,511.16782009997405,511.26771669997834,511.26771669997834,511.26771669997834,right,1,0.8342472999356687,,,,,,,,,,,,,,,,,,,,,,,,,,,,,,,,,,,,,011,001,2023-11-22_16h21.12.612,ETproject_Chi_2023.1.1,2023.1.1,60.07359014880508,
21,Month,十月 ,十一月 ,,Hori,late,right,image/Chi_late.png,"[-0.4, 0]","[0.4, 0]",1,congruent,,,,,,,,,,,,,,,,,,,,,,0,48,48,5,,,,,,,,,,,,,,,,,,,,,,,,,,,,,,,,,,,,,,,,,,,,,512.1506199999712,1.014261499978602,513.1503773999866,513.2338163999375,514.0333312000148,514.133343399968,514.133343399968,514.133343399968,left,0,1.4875253000063822,,,,,,,,,,,,,,,,,,,,,,,,,,,,,,,,,,,,,011,001,2023-11-22_16h21.12.612,ETproject_Chi_2023.1.1,2023.1.1,60.07359014880508,
13,Month,二月,三月,,Hori,late,right,image/Chi_late.png,"[-0.4, 0]","[0.4, 0]",1,congruent,,,,,,,,,,,,,,,,,,,,,,0,49,49,42,,,,,,,,,,,,,,,,,,,,,,,,,,,,,,,,,,,,,,,,,,,,,516.6571952999802,1.0142599999671802,517.6655986999394,517.7489700999577,518.5487826999743,518.6485643000342,518.6485643000342,518.6485643000342,right,1,0.8684062999673188,,,,,,,,,,,,,,,,,,,,,,,,,,,,,,,,,,,,,011,001,2023-11-22_16h21.12.612,ETproject_Chi_2023.1.1,2023.1.1,60.07359014880508,
,,,,,,,,,,,,,,,,,,,,,,,,,,,,,,,,,,,,,,,,,,,,,,,,,,,,,,,,,,,,,,,,,,,,,,,,,,,,,,,,,,,,,,,,,,,,,,,,,,,,,,,,,,,,,,,519.5485142000252,519.5485142000252,space,2.5213221000740305,,,,,,,,,,,,,,,011,001,2023-11-22_16h21.12.612,ETproject_Chi_2023.1.1,2023.1.1,60.07359014880508,
,,,,,,,,,,,,,Spring 5.jpg,这是冬天吗？,否,Right,Break_material/Image/Spring 5.jpg,,,,,,,,,,,,,,,,,,,,,0,0,0,4,,,,,,,,,,,,,,,,,,,,,,,,,,,,,,,,,,,,,,,,,,,,,,,,,,,,,,,,522.7749050999992,526.0841610999778,526.7789809999522,528.0954400999472,528.0954400999472,528.0954400999472,528.0954400999472,right,0,0.43034700001589954,,,,,,,,,,,,,,,,,,,,,,,011,001,2023-11-22_16h21.12.612,ETproject_Chi_2023.1.1,2023.1.1,60.07359014880508,
,,,,,,,,,,,,,Spring 3.jpg,这是夏天吗？,否,Right,Break_material/Image/Spring 3.jpg,,,,,,,,,,,,,,,,,,,,,0,1,1,2,,,,,,,,,,,,,,,,,,,,,,,,,,,,,,,,,,,,,,,,,,,,,,,,,,,,,,,,528.7847780999728,532.5314565999433,532.793736099964,534.5432125999359,534.5432125999359,534.5432125999359,534.5432125999359,right,0,0.68610560009256,,,,,,,,,,,,,,,,,,,,,,,011,001,2023-11-22_16h21.12.612,ETproject_Chi_2023.1.1,2023.1.1,60.07359014880508,
,,,,,,,,,,,,,Spring 1.jpg,这是春天吗？,是,Left,Break_material/Image/Spring 1.jpg,,,,,,,,,,,,,,,,,,,,,0,2,2,0,,,,,,,,,,,,,,,,,,,,,,,,,,,,,,,,,,,,,,,,,,,,,,,,,,,,,,,,535.3063892000355,539.2452729999786,539.3081316000316,541.257622999954,541.257622999954,541.257622999954,541.257622999954,left,0,0.5642443000106141,,,,,,,,,,,,,,,,,,,,,,,011,001,2023-11-22_16h21.12.612,ETproject_Chi_2023.1.1,2023.1.1,60.07359014880508,
,,,,,,,,,,,,,Spring 4.jpg,这是秋天吗？,否,Right,Break_material/Image/Spring 4.jpg,,,,,,,,,,,,,,,,,,,,,0,3,3,3,,,,,,,,,,,,,,,,,,,,,,,,,,,,,,,,,,,,,,,,,,,,,,,,,,,,,,,,542.0644876000006,545.8270019999472,546.0726607999532,547.8387895999476,547.8387895999476,547.8387895999476,547.8387895999476,left,0,0.7024985000025481,,,,,,,,,,,,,,,,,,,,,,,011,001,2023-11-22_16h21.12.612,ETproject_Chi_2023.1.1,2023.1.1,60.07359014880508,
,,,,,,,,,,,,,Spring 6.jpg,这是春天吗？,是,Left,Break_material/Image/Spring 6.jpg,,,,,,,,,,,,,,,,,,,,,0,4,4,5,,,,,,,,,,,,,,,,,,,,,,,,,,,,,,,,,,,,,,,,,,,,,,,,,,,,,,,,549.2461890999693,552.5584820000222,553.2536326999543,554.5699178000214,554.5699178000214,554.5699178000214,554.5699178000214,right,0,0.5873712999746203,,,,,,,,,,,,,,,,,,,,,,,011,001,2023-11-22_16h21.12.612,ETproject_Chi_2023.1.1,2023.1.1,60.07359014880508,
,,,,,,,,,,,,,Spring 2.jpg,这是冬天吗？,否,Right,Break_material/Image/Spring 2.jpg,,,,,,,,,,,,,,,,,,,,,0,5,5,1,,,,,,,,,,,,,,,,,,,,,,,,,,,,,,,,,,,,,,,,,,,,,,,,,,,,,,,,555.4443310999777,559.171783400001,559.4516289000167,561.1843667000066,561.1843667000066,561.1843667000066,561.1843667000066,right,0,0.6618060000473633,,,,,,,,,,,,,,,,,,,,,,,011,001,2023-11-22_16h21.12.612,ETproject_Chi_2023.1.1,2023.1.1,60.07359014880508,
,,,,,,,,,,,,,,,,,,,,,,,,,,,,,,,,,,,,,,,,,,,,,,,,,,,,,,,,,,,,,,,,,,,,,,,,,,,,,,,,,,,,,,,,,,,,,,,,,,,,,,,,,,,,,,,,,,,561.8676372999325,561.8676372999325,space,1.665467100101523,,,,,,,,,,,011,001,2023-11-22_16h21.12.612,ETproject_Chi_2023.1.1,2023.1.1,60.07359014880508,
128,Week,星期日,星期四,,Hori,early,right,image/Chi_early.png,"[-0.4, 0]","[0.4, 0]",3,incongruent,,,,,,,,,,,,,,,,,,,,,,,,,,,,,,0,0,0,35,,,,,,,,,,,,,,,,,,,,,,,,,,,,,,,,,,,,,563.5669036000036,0.9993388000875711,564.5667157999706,564.6499063000083,565.4496178999543,565.549659900018,565.549659900018,565.549659900018,right,1,2.0879886999027804,,,,,,,,,,,,,,,,,,,,,,,,,,,,,,,,,,,,,011,001,2023-11-22_16h21.12.612,ETproject_Chi_2023.1.1,2023.1.1,60.07359014880508,
47,Month,五月,二月,,Hori,late,left,image/Chi_late.png,"[-0.4, 0]","[0.4, 0]",3,incongruent,,,,,,,,,,,,,,,,,,,,,,,,,,,,,,0,1,1,10,,,,,,,,,,,,,,,,,,,,,,,,,,,,,,,,,,,,,567.6831948999316,1.0142648000037298,568.681882899953,568.7651523000095,569.5648396000033,569.6649178999942,569.6649178999942,569.6649178999942,left,1,1.3887439999962226,,,,,,,,,,,,,,,,,,,,,,,,,,,,,,,,,,,,,011,001,2023-11-22_16h21.12.612,ETproject_Chi_2023.1.1,2023.1.1,60.07359014880508,
42,Month,九月 ,六月,,Hori,early,right,image/Chi_early.png,"[-0.4, 0]","[0.4, 0]",3,incongruent,,,,,,,,,,,,,,,,,,,,,,,,,,,,,,0,2,2,4,,,,,,,,,,,,,,,,,,,,,,,,,,,,,,,,,,,,,571.094668500009,1.0106319999322295,572.0974823000142,572.1806924999692,572.9804379999405,573.0804850999266,573.0804850999266,573.0804850999266,right,1,1.4844337000977248,,,,,,,,,,,,,,,,,,,,,,,,,,,,,,,,,,,,,011,001,2023-11-22_16h21.12.612,ETproject_Chi_2023.1.1,2023.1.1,60.07359014880508,
32,Month,五月,八月,,Vert,late,down,image/Chi_late.png,"[0, 0.4]","[0, -0.4]",3,congruent,,,,,,,,,,,,,,,,,,,,,,,,,,,,,,0,3,3,9,,,,,,,,,,,,,,,,,,,,,,,,,,,,,,,,,,,,,574.6102397999493,1.012151800096035,575.6129261000315,575.6963161999593,576.4960329999449,576.5959353999933,576.5959353999933,576.5959353999933,down,1,1.7141809000167996,,,,,,,,,,,,,,,,,,,,,,,,,,,,,,,,,,,,,011,001,2023-11-22_16h21.12.612,ETproject_Chi_2023.1.1,2023.1.1,60.07359014880508,
143,Week,星期日,星期五,,Vert,early,down,image/Chi_early.png,"[0, 0.4]","[0, -0.4]",2,incongruent,,,,,,,,,,,,,,,,,,,,,,,,,,,,,,0,4,4,22,,,,,,,,,,,,,,,,,,,,,,,,,,,,,,,,,,,,,578.3417717999546,1.0112369999988005,579.3450784999877,579.4283482999308,580.2281440999359,580.3282327000052,580.3282327000052,580.3282327000052,down,1,1.2374465999891981,,,,,,,,,,,,,,,,,,,,,,,,,,,,,,,,,,,,,011,001,2023-11-22_16h21.12.612,ETproject_Chi_2023.1.1,2023.1.1,60.07359014880508,
43,Month,五月,三月,,Hori,early,right,image/Chi_early.png,"[-0.4, 0]","[0.4, 0]",2,incongruent,,,,,,,,,,,,,,,,,,,,,,,,,,,,,,0,5,5,16,,,,,,,,,,,,,,,,,,,,,,,,,,,,,,,,,,,,,581.6048371000215,1.0107816000236198,582.6106559999753,582.6940317000262,583.4936117000179,583.5937681000214,583.5937681000214,583.5937681000214,right,1,1.8203625999158248,,,,,,,,,,,,,,,,,,,,,,,,,,,,,,,,,,,,,011,001,2023-11-22_16h21.12.612,ETproject_Chi_2023.1.1,2023.1.1,60.07359014880508,
43,Month,七月,三月,,Hori,late,left,image/Chi_late.png,"[-0.4, 0]","[0.4, 0]",4,incongruent,,,,,,,,,,,,,,,,,,,,,,,,,,,,,,0,6,6,39,,,,,,,,,,,,,,,,,,,,,,,,,,,,,,,,,,,,,585.4542981999693,0.9990247000241652,586.4593837999273,586.5427378999302,587.342373499996,587.442354299943,587.442354299943,587.442354299943,left,1,1.7714679999044165,,,,,,,,,,,,,,,,,,,,,,,,,,,,,,,,,,,,,011,001,2023-11-22_16h21.12.612,ETproject_Chi_2023.1.1,2023.1.1,60.07359014880508,
8,Month,八月,十二月,,Hori,early,left,image/Chi_early.png,"[-0.4, 0]","[0.4, 0]",4,congruent,,,,,,,,,,,,,,,,,,,,,,,,,,,,,,0,7,7,7,,,,,,,,,,,,,,,,,,,,,,,,,,,,,,,,,,,,,589.2545831999741,1.010643700021319,590.2580592000159,590.3414689999772,591.1411680999445,591.241189399967,591.241189399967,591.241189399967,left,1,1.004964099964127,,,,,,,,,,,,,,,,,,,,,,,,,,,,,,,,,,,,,011,001,2023-11-22_16h21.12.612,ETproject_Chi_2023.1.1,2023.1.1,60.07359014880508,
47,Month,九月 ,七月,,Hori,early,right,image/Chi_early.png,"[-0.4, 0]","[0.4, 0]",2,incongruent,,,,,,,,,,,,,,,,,,,,,,,,,,,,,,0,8,8,23,,,,,,,,,,,,,,,,,,,,,,,,,,,,,,,,,,,,,592.2804330999497,1.01323629997205,593.290569899953,593.3739082999527,594.173437200021,594.2734897999326,594.2734897999326,594.2734897999326,right,1,2.4516125000081956,,,,,,,,,,,,,,,,,,,,,,,,,,,,,,,,,,,,,011,001,2023-11-22_16h21.12.612,ETproject_Chi_2023.1.1,2023.1.1,60.07359014880508,
122,Week,星期五,星期日,,Vert,late,down,image/Chi_late.png,"[0, 0.4]","[0, -0.4]",2,congruent,,,,,,,,,,,,,,,,,,,,,,,,,,,,,,0,9,9,40,,,,,,,,,,,,,,,,,,,,,,,,,,,,,,,,,,,,,596.7680343999527,1.0115601000143215,597.772533899988,597.8557288999436,598.655435099965,598.7553503999952,598.7553503999952,598.7553503999952,down,1,1.6827518999343738,,,,,,,,,,,,,,,,,,,,,,,,,,,,,,,,,,,,,011,001,2023-11-22_16h21.12.612,ETproject_Chi_2023.1.1,2023.1.1,60.07359014880508,
127,Week,星期四,星期三 ,,Hori,early,right,image/Chi_early.png,"[-0.4, 0]","[0.4, 0]",1,incongruent,,,,,,,,,,,,,,,,,,,,,,,,,,,,,,0,10,10,48,,,,,,,,,,,,,,,,,,,,,,,,,,,,,,,,,,,,,600.4678059000289,1.0130989999743178,601.4711227000225,601.554495499935,602.3541085999459,602.4540316000348,602.4540316000348,602.4540316000348,right,1,1.0790449000196531,,,,,,,,,,,,,,,,,,,,,,,,,,,,,,,,,,,,,011,001,2023-11-22_16h21.12.612,ETproject_Chi_2023.1.1,2023.1.1,60.07359014880508,
15,Month,七月,十一月 ,,Hori,late,right,image/Chi_late.png,"[-0.4, 0]","[0.4, 0]",4,congruent,,,,,,,,,,,,,,,,,,,,,,,,,,,,,,0,11,11,15,,,,,,,,,,,,,,,,,,,,,,,,,,,,,,,,,,,,,603.5692758000223,1.011914400034584,604.5700857000193,604.6534094000235,605.4530932999915,605.5531523999525,605.5531523999525,605.5531523999525,right,1,2.78095150005538,,,,,,,,,,,,,,,,,,,,,,,,,,,,,,,,,,,,,011,001,2023-11-22_16h21.12.612,ETproject_Chi_2023.1.1,2023.1.1,60.07359014880508,
61,Month,七月,六月,,Hori,late,left,image/Chi_late.png,"[-0.4, 0]","[0.4, 0]",1,incongruent,,,,,,,,,,,,,,,,,,,,,,,,,,,,,,0,12,12,17,,,,,,,,,,,,,,,,,,,,,,,,,,,,,,,,,,,,,608.359591800021,1.0112869999138638,609.3685308999848,609.4517367000226,610.2516440999461,610.3517281999812,610.3517281999812,610.3517281999812,left,1,3.989376000012271,,,,,,,,,,,,,,,,,,,,,,,,,,,,,,,,,,,,,011,001,2023-11-22_16h21.12.612,ETproject_Chi_2023.1.1,2023.1.1,60.07359014880508,
149,Week,星期五,星期四,,Vert,late,up,image/Chi_late.png,"[0, 0.4]","[0, -0.4]",1,incongruent,,,,,,,,,,,,,,,,,,,,,,,,,,,,,,0,13,13,8,,,,,,,,,,,,,,,,,,,,,,,,,,,,,,,,,,,,,614.3777412000345,1.0113543000770733,615.3834882000228,615.4667217000388,616.2664665000048,616.3664873000234,616.3664873000234,616.3664873000234,up,1,1.5675696999533102,,,,,,,,,,,,,,,,,,,,,,,,,,,,,,,,,,,,,011,001,2023-11-22_16h21.12.612,ETproject_Chi_2023.1.1,2023.1.1,60.07359014880508,
3,Month,三月,五月,,Hori,early,left,image/Chi_early.png,"[-0.4, 0]","[0.4, 0]",2,congruent,,,,,,,,,,,,,,,,,,,,,,,,,,,,,,0,14,14,29,,,,,,,,,,,,,,,,,,,,,,,,,,,,,,,,,,,,,617.9811647000024,1.0120962000219151,618.9822830000194,619.0655536999693,619.8652543999488,619.9652317999862,619.9652317999862,619.9652317999862,left,1,3.6730998000130057,,,,,,,,,,,,,,,,,,,,,,,,,,,,,,,,,,,,,011,001,2023-11-22_16h21.12.612,ETproject_Chi_2023.1.1,2023.1.1,60.07359014880508,
38,Month,十月 ,六月,,Hori,early,right,image/Chi_early.png,"[-0.4, 0]","[0.4, 0]",4,incongruent,,,,,,,,,,,,,,,,,,,,,,,,,,,,,,0,15,15,18,,,,,,,,,,,,,,,,,,,,,,,,,,,,,,,,,,,,,623.6710373000242,1.0131469999905676,624.6805764000164,624.7635387999471,625.5633288000245,625.6634866000386,625.6634866000386,625.6634866000386,right,1,1.861426700023003,,,,,,,,,,,,,,,,,,,,,,,,,,,,,,,,,,,,,011,001,2023-11-22_16h21.12.612,ETproject_Chi_2023.1.1,2023.1.1,60.07359014880508,
118,Week,星期一,星期三 ,,Vert,late,down,image/Chi_late.png,"[0, 0.4]","[0, -0.4]",2,congruent,,,,,,,,,,,,,,,,,,,,,,,,,,,,,,0,16,16,43,,,,,,,,,,,,,,,,,,,,,,,,,,,,,,,,,,,,,627.5621884999564,1.0115274999989197,628.5624160999432,628.6456446000375,629.4454449999612,629.5453961000312,629.5453961000312,629.5453961000312,down,1,1.6364096000324935,,,,,,,,,,,,,,,,,,,,,,,,,,,,,,,,,,,,,011,001,2023-11-22_16h21.12.612,ETproject_Chi_2023.1.1,2023.1.1,60.07359014880508,
30,Month,三月,六月,,Vert,late,down,image/Chi_late.png,"[0, 0.4]","[0, -0.4]",3,congruent,,,,,,,,,,,,,,,,,,,,,,,,,,,,,,0,17,17,14,,,,,,,,,,,,,,,,,,,,,,,,,,,,,,,,,,,,,631.2181152999401,1.0153669000137597,632.2279161999468,632.3112739999779,633.110978199984,633.210831400007,633.210831400007,633.210831400007,down,1,2.4821523999562487,,,,,,,,,,,,,,,,,,,,,,,,,,,,,,,,,,,,,011,001,2023-11-22_16h21.12.612,ETproject_Chi_2023.1.1,2023.1.1,60.07359014880508,
64,Month,四月,一月,,Vert,late,up,image/Chi_late.png,"[0, 0.4]","[0, -0.4]",3,incongruent,,,,,,,,,,,,,,,,,,,,,,,,,,,,,,0,18,18,24,,,,,,,,,,,,,,,,,,,,,,,,,,,,,,,,,,,,,635.7161587999435,1.0143521000863984,636.7263888999587,636.8096780999331,637.6093681999482,637.7093534999294,637.7093534999294,637.7093534999294,up,1,1.2967545000137761,,,,,,,,,,,,,,,,,,,,,,,,,,,,,,,,,,,,,011,001,2023-11-22_16h21.12.612,ETproject_Chi_2023.1.1,2023.1.1,60.07359014880508,
106,Week,星期三 ,星期五,,Hori,late,right,image/Chi_late.png,"[-0.4, 0]","[0.4, 0]",2,congruent,,,,,,,,,,,,,,,,,,,,,,,,,,,,,,0,19,19,33,,,,,,,,,,,,,,,,,,,,,,,,,,,,,,,,,,,,,639.039285399951,1.0105780999874696,640.0420058999443,640.1252194999252,640.9249299999792,641.0249467999674,641.0249467999674,641.0249467999674,right,1,1.6119421999901533,,,,,,,,,,,,,,,,,,,,,,,,,,,,,,,,,,,,,011,001,2023-11-22_16h21.12.612,ETproject_Chi_2023.1.1,2023.1.1,60.07359014880508,
52,Month,十月 ,七月,,Hori,late,left,image/Chi_late.png,"[-0.4, 0]","[0.4, 0]",3,incongruent,,,,,,,,,,,,,,,,,,,,,,,,,,,,,,0,20,20,41,,,,,,,,,,,,,,,,,,,,,,,,,,,,,,,,,,,,,642.6623856000369,0.9991748000029474,643.6740738999797,643.7574007000076,644.557038799976,644.6571187999798,644.6571187999798,644.6571187999798,left,1,3.0693873999407515,,,,,,,,,,,,,,,,,,,,,,,,,,,,,,,,,,,,,011,001,2023-11-22_16h21.12.612,ETproject_Chi_2023.1.1,2023.1.1,60.07359014880508,
136,Week,星期六,星期五,,Hori,late,left,image/Chi_late.png,"[-0.4, 0]","[0.4, 0]",1,incongruent,,,,,,,,,,,,,,,,,,,,,,,,,,,,,,0,21,21,13,,,,,,,,,,,,,,,,,,,,,,,,,,,,,,,,,,,,,648.7662101000315,0.9990044001024216,649.772033700021,649.8554418999702,650.6552157999249,650.7551042999839,650.7551042999839,650.7551042999839,left,1,2.059121900005266,,,,,,,,,,,,,,,,,,,,,,,,,,,,,,,,,,,,,011,001,2023-11-22_16h21.12.612,ETproject_Chi_2023.1.1,2023.1.1,60.07359014880508,
46,Month,三月,二月,,Hori,early,right,image/Chi_early.png,"[-0.4, 0]","[0.4, 0]",1,incongruent,,,,,,,,,,,,,,,,,,,,,,,,,,,,,,0,22,22,36,,,,,,,,,,,,,,,,,,,,,,,,,,,,,,,,,,,,,652.8491622000001,1.0119290999136865,653.8542125000386,653.9373476000037,654.7372653000057,654.8369882999687,654.8369882999687,654.8369882999687,right,1,1.7127340999431908,,,,,,,,,,,,,,,,,,,,,,,,,,,,,,,,,,,,,011,001,2023-11-22_16h21.12.612,ETproject_Chi_2023.1.1,2023.1.1,60.07359014880508,
69,Month,十一月 ,九月 ,,Vert,early,down,image/Chi_early.png,"[0, 0.4]","[0, -0.4]",2,incongruent,,,,,,,,,,,,,,,,,,,,,,,,,,,,,,0,23,23,32,,,,,,,,,,,,,,,,,,,,,,,,,,,,,,,,,,,,,656.5745647000149,1.0152935000369325,657.5861676000059,657.6694873999804,658.4692759999307,658.5691478999797,658.5691478999797,658.5691478999797,down,1,1.2130394999403507,,,,,,,,,,,,,,,,,,,,,,,,,,,,,,,,,,,,,011,001,2023-11-22_16h21.12.612,ETproject_Chi_2023.1.1,2023.1.1,60.07359014880508,
52,Month,八月,四月,,Vert,early,down,image/Chi_early.png,"[0, 0.4]","[0, -0.4]",4,incongruent,,,,,,,,,,,,,,,,,,,,,,,,,,,,,,0,24,24,31,,,,,,,,,,,,,,,,,,,,,,,,,,,,,,,,,,,,,659.8083730000071,1.0146095999516547,660.8185592000373,660.9017864000052,661.7014729999937,661.8014401999535,661.8014401999535,661.8014401999535,down,1,2.380965600023046,,,,,,,,,,,,,,,,,,,,,,,,,,,,,,,,,,,,,011,001,2023-11-22_16h21.12.612,ETproject_Chi_2023.1.1,2023.1.1,60.07359014880508,
11,Month,一月,三月,,Hori,late,right,image/Chi_late.png,"[-0.4, 0]","[0.4, 0]",2,congruent,,,,,,,,,,,,,,,,,,,,,,,,,,,,,,0,25,25,5,,,,,,,,,,,,,,,,,,,,,,,,,,,,,,,,,,,,,664.214798299945,1.010879300069064,665.2170475999592,665.3004222000018,666.1001663999632,666.2001350999344,666.2001350999344,666.2001350999344,right,1,1.1902749000582844,,,,,,,,,,,,,,,,,,,,,,,,,,,,,,,,,,,,,011,001,2023-11-22_16h21.12.612,ETproject_Chi_2023.1.1,2023.1.1,60.07359014880508,
50,Month,六月,二月,,Vert,early,down,image/Chi_early.png,"[0, 0.4]","[0, -0.4]",4,incongruent,,,,,,,,,,,,,,,,,,,,,,,,,,,,,,0,26,26,30,,,,,,,,,,,,,,,,,,,,,,,,,,,,,,,,,,,,,667.4400018999586,1.0133889999706298,668.4491698000347,668.515914299991,669.3155583000043,669.4155644000275,669.4155644000275,669.4155644000275,down,1,1.214898300007917,,,,,,,,,,,,,,,,,,,,,,,,,,,,,,,,,,,,,011,001,2023-11-22_16h21.12.612,ETproject_Chi_2023.1.1,2023.1.1,60.07359014880508,
105,Week,星期二,星期五,,Hori,late,right,image/Chi_late.png,"[-0.4, 0]","[0.4, 0]",3,congruent,,,,,,,,,,,,,,,,,,,,,,,,,,,,,,0,27,27,42,,,,,,,,,,,,,,,,,,,,,,,,,,,,,,,,,,,,,670.6656127999304,1.0129103999352083,671.6647683000192,671.7481411999324,672.5478372999933,672.6478676999686,672.6478676999686,672.6478676999686,right,1,1.7173995999619365,,,,,,,,,,,,,,,,,,,,,,,,,,,,,,,,,,,,,011,001,2023-11-22_16h21.12.612,ETproject_Chi_2023.1.1,2023.1.1,60.07359014880508,
33,Month,十一月 ,十二月,,Vert,early,up,image/Chi_early.png,"[0, 0.4]","[0, -0.4]",1,congruent,,,,,,,,,,,,,,,,,,,,,,,,,,,,,,0,28,28,2,,,,,,,,,,,,,,,,,,,,,,,,,,,,,,,,,,,,,675.409338700003,1.0142587999580428,676.4132196999853,676.4965344000375,677.2963387999916,677.3962862000335,677.3962862000335,677.3962862000335,up,1,1.5607319999253377,,,,,,,,,,,,,,,,,,,,,,,,,,,,,,,,,,,,,011,001,2023-11-22_16h21.12.612,ETproject_Chi_2023.1.1,2023.1.1,60.07359014880508,
47,Month,十一月 ,七月,,Hori,late,left,image/Chi_late.png,"[-0.4, 0]","[0.4, 0]",4,incongruent,,,,,,,,,,,,,,,,,,,,,,,,,,,,,,0,29,29,37,,,,,,,,,,,,,,,,,,,,,,,,,,,,,,,,,,,,,678.9857380000176,1.0155743999639526,679.9955891999416,680.0788913000142,680.8784939999459,680.9783992000157,680.9783992000157,680.9783992000157,None,0,,,,,,,,,,,,,,,,,,,,,,,,,,,,,,,,,,,,,,011,001,2023-11-22_16h21.12.612,ETproject_Chi_2023.1.1,2023.1.1,60.07359014880508,
55,Month,七月,五月,,Hori,late,left,image/Chi_late.png,"[-0.4, 0]","[0.4, 0]",2,incongruent,,,,,,,,,,,,,,,,,,,,,,,,,,,,,,0,30,30,11,,,,,,,,,,,,,,,,,,,,,,,,,,,,,,,,,,,,,686.0033522000303,1.013165400014259,687.009851199924,687.0763880999293,687.8761963000288,687.9762654999504,687.9762654999504,687.9762654999504,left,1,0.9492908000247553,,,,,,,,,,,,,,,,,,,,,,,,,,,,,,,,,,,,,011,001,2023-11-22_16h21.12.612,ETproject_Chi_2023.1.1,2023.1.1,60.07359014880508,
58,Month,十月 ,八月,,Hori,late,left,image/Chi_late.png,"[-0.4, 0]","[0.4, 0]",2,incongruent,,,,,,,,,,,,,,,,,,,,,,,,,,,,,,0,31,31,26,,,,,,,,,,,,,,,,,,,,,,,,,,,,,,,,,,,,,688.9539753999561,1.013003500062041,689.9587738999398,690.0421109999297,690.8417901999783,690.941800700035,690.941800700035,690.941800700035,left,1,1.128767199930735,,,,,,,,,,,,,,,,,,,,,,,,,,,,,,,,,,,,,011,001,2023-11-22_16h21.12.612,ETproject_Chi_2023.1.1,2023.1.1,60.07359014880508,
57,Month,五月,一月,,Vert,late,up,image/Chi_late.png,"[0, 0.4]","[0, -0.4]",4,incongruent,,,,,,,,,,,,,,,,,,,,,,,,,,,,,,0,32,32,25,,,,,,,,,,,,,,,,,,,,,,,,,,,,,,,,,,,,,692.1008446000051,1.011324799968861,693.1076902999775,693.1912262999685,693.9909236000385,694.0910482000327,694.0910482000327,694.0910482000327,up,1,0.9230240999022499,,,,,,,,,,,,,,,,,,,,,,,,,,,,,,,,,,,,,011,001,2023-11-22_16h21.12.612,ETproject_Chi_2023.1.1,2023.1.1,60.07359014880508,
31,Month,七月,十一月 ,,Vert,late,down,image/Chi_late.png,"[0, 0.4]","[0, -0.4]",4,congruent,,,,,,,,,,,,,,,,,,,,,,,,,,,,,,0,33,33,6,,,,,,,,,,,,,,,,,,,,,,,,,,,,,,,,,,,,,695.0529990999494,1.0098079999443144,696.0568061999511,696.1403773999773,696.9399717999622,697.0399936999893,697.0399936999893,697.0399936999893,down,1,1.1257037000032142,,,,,,,,,,,,,,,,,,,,,,,,,,,,,,,,,,,,,011,001,2023-11-22_16h21.12.612,ETproject_Chi_2023.1.1,2023.1.1,60.07359014880508,
119,Week,星期二,星期四,,Vert,late,down,image/Chi_late.png,"[0, 0.4]","[0, -0.4]",2,congruent,,,,,,,,,,,,,,,,,,,,,,,,,,,,,,0,34,34,45,,,,,,,,,,,,,,,,,,,,,,,,,,,,,,,,,,,,,698.199036499951,1.0115191000513732,699.2059361999854,699.2890696999384,700.0888040999416,700.1888874999713,700.1888874999713,700.1888874999713,down,1,1.0255844000494108,,,,,,,,,,,,,,,,,,,,,,,,,,,,,,,,,,,,,011,001,2023-11-22_16h21.12.612,ETproject_Chi_2023.1.1,2023.1.1,60.07359014880508,
76,Month,十一月 ,十月 ,,Vert,early,down,image/Chi_early.png,"[0, 0.4]","[0, -0.4]",1,incongruent,,,,,,,,,,,,,,,,,,,,,,,,,,,,,,0,35,35,1,,,,,,,,,,,,,,,,,,,,,,,,,,,,,,,,,,,,,701.251666199998,1.0157516000326723,702.2547752999235,702.3380780000007,703.1376871999819,703.2378874999704,703.2378874999704,703.2378874999704,down,1,1.0078431000001729,,,,,,,,,,,,,,,,,,,,,,,,,,,,,,,,,,,,,011,001,2023-11-22_16h21.12.612,ETproject_Chi_2023.1.1,2023.1.1,60.07359014880508,
79,Month,十一月 ,九月 ,,Vert,late,up,image/Chi_late.png,"[0, 0.4]","[0, -0.4]",2,incongruent,,,,,,,,,,,,,,,,,,,,,,,,,,,,,,0,36,36,0,,,,,,,,,,,,,,,,,,,,,,,,,,,,,,,,,,,,,704.2781188000226,1.0154496000614017,705.2870912000071,705.3702590999892,706.1700516999699,706.270177999977,706.270177999977,706.270177999977,up,1,1.680194400018081,,,,,,,,,,,,,,,,,,,,,,,,,,,,,,,,,,,,,011,001,2023-11-22_16h21.12.612,ETproject_Chi_2023.1.1,2023.1.1,60.07359014880508,
107,Week,星期四,星期日,,Hori,late,right,image/Chi_late.png,"[-0.4, 0]","[0.4, 0]",3,congruent,,,,,,,,,,,,,,,,,,,,,,,,,,,,,,0,37,37,34,,,,,,,,,,,,,,,,,,,,,,,,,,,,,,,,,,,,,707.9782122999895,1.0114527998957783,708.9856086999644,709.0692673999583,709.8689396999544,709.9691113999579,709.9691113999579,709.9691113999579,right,1,1.2051626000320539,,,,,,,,,,,,,,,,,,,,,,,,,,,,,,,,,,,,,011,001,2023-11-22_16h21.12.612,ETproject_Chi_2023.1.1,2023.1.1,60.07359014880508,
50,Month,七月,六月,,Hori,early,right,image/Chi_early.png,"[-0.4, 0]","[0.4, 0]",1,incongruent,,,,,,,,,,,,,,,,,,,,,,,,,,,,,,0,38,38,28,,,,,,,,,,,,,,,,,,,,,,,,,,,,,,,,,,,,,712.2102110999404,1.0149440999375656,713.2177985999733,713.3013025999535,714.1007469999604,714.2009433000349,714.2009433000349,714.2009433000349,left,0,1.1484448000555858,,,,,,,,,,,,,,,,,,,,,,,,,,,,,,,,,,,,,011,001,2023-11-22_16h21.12.612,ETproject_Chi_2023.1.1,2023.1.1,60.07359014880508,
32,Month,十月 ,十一月 ,,Vert,early,up,image/Chi_early.png,"[0, 0.4]","[0, -0.4]",1,congruent,,,,,,,,,,,,,,,,,,,,,,,,,,,,,,0,39,39,44,,,,,,,,,,,,,,,,,,,,,,,,,,,,,,,,,,,,,715.3809386999346,1.0156002000439912,716.3834708000068,716.4668898000382,717.2666529000271,717.3665924000088,717.3665924000088,717.3665924000088,up,1,2.703040999942459,,,,,,,,,,,,,,,,,,,,,,,,,,,,,,,,,,,,,011,001,2023-11-22_16h21.12.612,ETproject_Chi_2023.1.1,2023.1.1,60.07359014880508,
9,Month,九月 ,十月 ,,Hori,early,left,image/Chi_early.png,"[-0.4, 0]","[0.4, 0]",1,congruent,,,,,,,,,,,,,,,,,,,,,,,,,,,,,,0,40,40,47,,,,,,,,,,,,,,,,,,,,,,,,,,,,,,,,,,,,,721.1035450999625,1.0153032999951392,722.1149148999248,722.198192999931,722.9980301000178,723.0981339999707,723.0981339999707,723.0981339999707,left,1,2.4190475000068545,,,,,,,,,,,,,,,,,,,,,,,,,,,,,,,,,,,,,011,001,2023-11-22_16h21.12.612,ETproject_Chi_2023.1.1,2023.1.1,60.07359014880508,
133,Week,星期五,星期二,,Hori,late,left,image/Chi_late.png,"[-0.4, 0]","[0.4, 0]",3,incongruent,,,,,,,,,,,,,,,,,,,,,,,,,,,,,,0,41,41,49,,,,,,,,,,,,,,,,,,,,,,,,,,,,,,,,,,,,,725.5606512000086,1.0119725000113249,726.5634838999249,726.6468743999721,727.4464885999914,727.5463878000155,727.5463878000155,727.5463878000155,left,1,1.5874908999539912,,,,,,,,,,,,,,,,,,,,,,,,,,,,,,,,,,,,,011,001,2023-11-22_16h21.12.612,ETproject_Chi_2023.1.1,2023.1.1,60.07359014880508,
51,Month,七月,三月,,Vert,early,down,image/Chi_early.png,"[0, 0.4]","[0, -0.4]",4,incongruent,,,,,,,,,,,,,,,,,,,,,,,,,,,,,,0,42,42,12,,,,,,,,,,,,,,,,,,,,,,,,,,,,,,,,,,,,,729.183241999941,1.011004799976945,730.1956415999448,730.2621375999879,731.0620097999927,731.1618925000075,731.1618925000075,731.1618925000075,up,0,0.6909671999746934,,,,,,,,,,,,,,,,,,,,,,,,,,,,,,,,,,,,,011,001,2023-11-22_16h21.12.612,ETproject_Chi_2023.1.1,2023.1.1,60.07359014880508,
68,Month,三月,二月,,Vert,early,down,image/Chi_early.png,"[0, 0.4]","[0, -0.4]",1,incongruent,,,,,,,,,,,,,,,,,,,,,,,,,,,,,,0,43,43,46,,,,,,,,,,,,,,,,,,,,,,,,,,,,,,,,,,,,,731.8857044000179,1.0132677000947297,732.8946235999465,732.9780189000303,733.7777862999355,733.8778110999847,733.8778110999847,733.8778110999847,down,1,1.126949799945578,,,,,,,,,,,,,,,,,,,,,,,,,,,,,,,,,,,,,011,001,2023-11-22_16h21.12.612,ETproject_Chi_2023.1.1,2023.1.1,60.07359014880508,
36,Month,八月,四月,,Hori,early,right,image/Chi_early.png,"[-0.4, 0]","[0.4, 0]",4,incongruent,,,,,,,,,,,,,,,,,,,,,,,,,,,,,,0,44,44,27,,,,,,,,,,,,,,,,,,,,,,,,,,,,,,,,,,,,,735.0372666999465,1.0110299999359995,736.0438214000314,736.1269397999858,736.9266580999829,737.0266274999594,737.0266274999594,737.0266274999594,right,1,1.6023551999824122,,,,,,,,,,,,,,,,,,,,,,,,,,,,,,,,,,,,,011,001,2023-11-22_16h21.12.612,ETproject_Chi_2023.1.1,2023.1.1,60.07359014880508,
122,Week,星期五,星期六,,Vert,late,down,image/Chi_late.png,"[0, 0.4]","[0, -0.4]",1,congruent,,,,,,,,,,,,,,,,,,,,,,,,,,,,,,0,45,45,38,,,,,,,,,,,,,,,,,,,,,,,,,,,,,,,,,,,,,738.6729180000257,1.0127595000667498,739.6757042999379,739.759118399932,740.5590197999263,740.6587228999706,740.6587228999706,740.6587228999706,down,1,3.6181077000219375,,,,,,,,,,,,,,,,,,,,,,,,,,,,,,,,,,,,,011,001,2023-11-22_16h21.12.612,ETproject_Chi_2023.1.1,2023.1.1,60.07359014880508,
12,Month,二月,四月,,Hori,late,right,image/Chi_late.png,"[-0.4, 0]","[0.4, 0]",2,congruent,,,,,,,,,,,,,,,,,,,,,,,,,,,,,,0,46,46,21,,,,,,,,,,,,,,,,,,,,,,,,,,,,,,,,,,,,,745.3142368999543,1.0157154999906197,746.3236361999298,746.4069549000124,747.2066302000312,747.306546799955,747.306546799955,747.306546799955,right,1,1.1236081999959424,,,,,,,,,,,,,,,,,,,,,,,,,,,,,,,,,,,,,011,001,2023-11-22_16h21.12.612,ETproject_Chi_2023.1.1,2023.1.1,60.07359014880508,
63,Month,十一月 ,七月,,Vert,late,up,image/Chi_late.png,"[0, 0.4]","[0, -0.4]",4,incongruent,,,,,,,,,,,,,,,,,,,,,,,,,,,,,,0,47,47,3,,,,,,,,,,,,,,,,,,,,,,,,,,,,,,,,,,,,,748.4605953999562,1.015332099981606,749.4725461000344,749.5557972999522,750.3556437999941,750.4554980000248,750.4554980000248,750.4554980000248,up,1,1.3494143999414518,,,,,,,,,,,,,,,,,,,,,,,,,,,,,,,,,,,,,011,001,2023-11-22_16h21.12.612,ETproject_Chi_2023.1.1,2023.1.1,60.07359014880508,
107,Week,星期四,星期五,,Hori,late,right,image/Chi_late.png,"[-0.4, 0]","[0.4, 0]",1,congruent,,,,,,,,,,,,,,,,,,,,,,,,,,,,,,0,48,48,19,,,,,,,,,,,,,,,,,,,,,,,,,,,,,,,,,,,,,752.8261584999273,1.0153172999853268,753.8377070999704,753.9210871999385,754.7209925999632,754.8208666000282,754.8208666000282,754.8208666000282,right,1,1.3768978000152856,,,,,,,,,,,,,,,,,,,,,,,,,,,,,,,,,,,,,011,001,2023-11-22_16h21.12.612,ETproject_Chi_2023.1.1,2023.1.1,60.07359014880508,
38,Month,五月,六月,,Vert,late,down,image/Chi_late.png,"[0, 0.4]","[0, -0.4]",1,congruent,,,,,,,,,,,,,,,,,,,,,,,,,,,,,,0,49,49,20,,,,,,,,,,,,,,,,,,,,,,,,,,,,,,,,,,,,,756.2277006999357,1.0127572999335825,757.2367039000383,757.3199282999849,758.1199909999268,758.2199070999632,758.2199070999632,758.2199070999632,down,1,2.3857533000409603,,,,,,,,,,,,,,,,,,,,,,,,,,,,,,,,,,,,,011,001,2023-11-22_16h21.12.612,ETproject_Chi_2023.1.1,2023.1.1,60.07359014880508,
,,,,,,,,,,,,,,,,,,,,,,,,,,,,,,,,,,,,,,,,,,,,,,,,,,,,,,,,,,,,,,,,,,,,,,,,,,,,,,,,,,,,,,,,,,,,,,,,,,,,,,,,,,,,,,,,,,,,,,,760.6358332999516,760.6358332999516,space,1.7468001999659464,,,,,,,011,001,2023-11-22_16h21.12.612,ETproject_Chi_2023.1.1,2023.1.1,60.07359014880508,
,,,,,,,,,,,,,Spring 1.jpg,这是春天吗？,是,Left,Break_material/Image/Spring 1.jpg,,,,,,,,,,,,,,,,,,,,,,,,,,,,,0,0,0,0,,,,,,,,,,,,,,,,,,,,,,,,,,,,,,,,,,,,,,,,,,,,,,,,762.4625624000328,766.3871203999734,766.4670458999462,768.399649500032,768.399649500032,768.399649500032,768.399649500032,left,0,2.357888499973342,,,,,,,,,,,,,,,,,,,,,,,011,001,2023-11-22_16h21.12.612,ETproject_Chi_2023.1.1,2023.1.1,60.07359014880508,
,,,,,,,,,,,,,Spring 3.jpg,这是夏天吗？,否,Right,Break_material/Image/Spring 3.jpg,,,,,,,,,,,,,,,,,,,,,,,,,,,,,0,1,1,2,,,,,,,,,,,,,,,,,,,,,,,,,,,,,,,,,,,,,,,,,,,,,,,,770.8377964999527,774.7681468999945,774.8474452999653,776.7802909000311,776.7802909000311,776.7802909000311,776.7802909000311,right,0,1.1293600000208244,,,,,,,,,,,,,,,,,,,,,,,011,001,2023-11-22_16h21.12.612,ETproject_Chi_2023.1.1,2023.1.1,60.07359014880508,
,,,,,,,,,,,,,Spring 2.jpg,这是冬天吗？,否,Right,Break_material/Image/Spring 2.jpg,,,,,,,,,,,,,,,,,,,,,,,,,,,,,0,2,2,1,,,,,,,,,,,,,,,,,,,,,,,,,,,,,,,,,,,,,,,,,,,,,,,,778.0063927000156,781.9153517000377,782.0119142000331,783.9279107999755,783.9279107999755,783.9279107999755,783.9279107999755,right,0,0.6536928999703377,,,,,,,,,,,,,,,,,,,,,,,011,001,2023-11-22_16h21.12.612,ETproject_Chi_2023.1.1,2023.1.1,60.07359014880508,
,,,,,,,,,,,,,Spring 4.jpg,这是秋天吗？,否,Right,Break_material/Image/Spring 4.jpg,,,,,,,,,,,,,,,,,,,,,,,,,,,,,0,3,3,3,,,,,,,,,,,,,,,,,,,,,,,,,,,,,,,,,,,,,,,,,,,,,,,,784.8378956000088,788.5970412000315,788.8429493999574,790.6089841999346,790.6089841999346,790.6089841999346,790.6089841999346,left,0,0.5255630000028759,,,,,,,,,,,,,,,,,,,,,,,011,001,2023-11-22_16h21.12.612,ETproject_Chi_2023.1.1,2023.1.1,60.07359014880508,
,,,,,,,,,,,,,Spring 5.jpg,这是冬天吗？,否,Right,Break_material/Image/Spring 5.jpg,,,,,,,,,,,,,,,,,,,,,,,,,,,,,0,4,4,4,,,,,,,,,,,,,,,,,,,,,,,,,,,,,,,,,,,,,,,,,,,,,,,,791.6620340000372,795.1451755999587,795.657501299982,797.1568283999804,797.1568283999804,797.1568283999804,797.1568283999804,right,0,0.7057933999458328,,,,,,,,,,,,,,,,,,,,,,,011,001,2023-11-22_16h21.12.612,ETproject_Chi_2023.1.1,2023.1.1,60.07359014880508,
,,,,,,,,,,,,,,,,,,,,,,,,,,,,,,,,,,,,,,,,,,,,,,,,,,,,,,,,,,,,,,,,,,,,,,,,,,,,,,,,,,,,,,,,,,,,,,,,,,,,,,,,,,,,,,,,,,,,,,,,,,,797.8901363000041,797.8901363000041,space,1.7633184000151232,,,011,001,2023-11-22_16h21.12.612,ETproject_Chi_2023.1.1,2023.1.1,60.07359014880508,
16,Month,五月,六月,,Hori,late,right,image/Chi_late.png,"[-0.4, 0]","[0.4, 0]",1,congruent,,,,,,,,,,,,,,,,,,,,,,,,,,,,,,,,,,,,,,0,0,0,32,,,,,,,,,,,,,,,,,,,,,,,,,,,,,799.6955261999974,0.9991825999459252,800.7056249999441,800.7724988999544,801.5720689999871,801.6722204999533,801.6722204999533,801.6722204999533,right,1,2.0045921999262646,,,,,,,,,,,,,,,,,,,,,,,,,,,,,,,,,,,,,011,001,2023-11-22_16h21.12.612,ETproject_Chi_2023.1.1,2023.1.1,60.07359014880508,
142,Week,星期六,星期四,,Vert,early,down,image/Chi_early.png,"[0, 0.4]","[0, -0.4]",2,incongruent,,,,,,,,,,,,,,,,,,,,,,,,,,,,,,,,,,,,,,0,1,1,15,,,,,,,,,,,,,,,,,,,,,,,,,,,,,803.7187245000387,1.009857299970463,804.7210267999908,804.8043753999518,805.6041232999414,805.7040646999376,805.7040646999376,805.7040646999376,down,1,1.4060062000062317,,,,,,,,,,,,,,,,,,,,,,,,,,,,,,,,,,,,,011,001,2023-11-22_16h21.12.612,ETproject_Chi_2023.1.1,2023.1.1,60.07359014880508,
147,Week,星期五,星期二,,Vert,late,up,image/Chi_late.png,"[0, 0.4]","[0, -0.4]",3,incongruent,,,,,,,,,,,,,,,,,,,,,,,,,,,,,,,,,,,,,,0,2,2,21,,,,,,,,,,,,,,,,,,,,,,,,,,,,,807.1549497999949,1.010859000030905,808.1532287999289,808.2365319000091,809.0362726999447,809.1362296999432,809.1362296999432,809.1362296999432,up,1,1.5816407999955118,,,,,,,,,,,,,,,,,,,,,,,,,,,,,,,,,,,,,011,001,2023-11-22_16h21.12.612,ETproject_Chi_2023.1.1,2023.1.1,60.07359014880508,
120,Week,星期三 ,星期四,,Vert,late,down,image/Chi_late.png,"[0, 0.4]","[0, -0.4]",1,congruent,,,,,,,,,,,,,,,,,,,,,,,,,,,,,,,,,,,,,,0,3,3,46,,,,,,,,,,,,,,,,,,,,,,,,,,,,,810.7466410000343,1.0110538000008091,811.7521234999876,811.8352840000298,812.6350455000065,812.7350074999267,812.7350074999267,812.7350074999267,down,1,3.3745911000296474,,,,,,,,,,,,,,,,,,,,,,,,,,,,,,,,,,,,,011,001,2023-11-22_16h21.12.612,ETproject_Chi_2023.1.1,2023.1.1,60.07359014880508,
41,Month,八月,九月 ,,Vert,late,down,image/Chi_late.png,"[0, 0.4]","[0, -0.4]",1,congruent,,,,,,,,,,,,,,,,,,,,,,,,,,,,,,,,,,,,,,0,4,4,23,,,,,,,,,,,,,,,,,,,,,,,,,,,,,816.1453156999778,1.0115858999779448,817.1504494999535,817.2335875999415,818.0333277999889,818.133584999945,818.133584999945,818.133584999945,down,1,3.391620200010948,,,,,,,,,,,,,,,,,,,,,,,,,,,,,,,,,,,,,011,001,2023-11-22_16h21.12.612,ETproject_Chi_2023.1.1,2023.1.1,60.07359014880508,
79,Month,三月,二月,,Vert,late,up,image/Chi_late.png,"[0, 0.4]","[0, -0.4]",1,incongruent,,,,,,,,,,,,,,,,,,,,,,,,,,,,,,,,,,,,,,0,5,5,8,,,,,,,,,,,,,,,,,,,,,,,,,,,,,821.5582232000306,1.0155703999334946,822.5652745999396,822.6485172000248,823.4481022999389,823.5480591999367,823.5480591999367,823.5480591999367,up,1,2.897198299993761,,,,,,,,,,,,,,,,,,,,,,,,,,,,,,,,,,,,,011,001,2023-11-22_16h21.12.612,ETproject_Chi_2023.1.1,2023.1.1,60.07359014880508,
48,Month,五月,四月,,Hori,early,right,image/Chi_early.png,"[-0.4, 0]","[0.4, 0]",1,incongruent,,,,,,,,,,,,,,,,,,,,,,,,,,,,,,,,,,,,,,0,6,6,37,,,,,,,,,,,,,,,,,,,,,,,,,,,,,826.4780874999706,1.0108933999435976,827.4803400000092,827.5634812000208,828.3632748000091,828.463288799976,828.463288799976,828.463288799976,right,1,1.6232227999716997,,,,,,,,,,,,,,,,,,,,,,,,,,,,,,,,,,,,,011,001,2023-11-22_16h21.12.612,ETproject_Chi_2023.1.1,2023.1.1,60.07359014880508,
27,Month,七月,九月 ,,Vert,early,up,image/Chi_early.png,"[0, 0.4]","[0, -0.4]",2,congruent,,,,,,,,,,,,,,,,,,,,,,,,,,,,,,,,,,,,,,0,7,7,17,,,,,,,,,,,,,,,,,,,,,,,,,,,,,831.1176463000011,1.0152414999902248,832.1287594999885,832.2118434000295,833.0116952999961,833.1117929000175,833.1117929000175,833.1117929000175,up,1,1.2064674999564886,,,,,,,,,,,,,,,,,,,,,,,,,,,,,,,,,,,,,011,001,2023-11-22_16h21.12.612,ETproject_Chi_2023.1.1,2023.1.1,60.07359014880508,
135,Week,星期日,星期四,,Hori,late,left,image/Chi_late.png,"[-0.4, 0]","[0.4, 0]",3,incongruent,,,,,,,,,,,,,,,,,,,,,,,,,,,,,,,,,,,,,,0,8,8,12,,,,,,,,,,,,,,,,,,,,,,,,,,,,,834.3536019999301,0.9992974000051618,835.3609252999304,835.4442566999933,836.2441585999914,836.3440116000129,836.3440116000129,836.3440116000129,left,1,2.285541499964893,,,,,,,,,,,,,,,,,,,,,,,,,,,,,,,,,,,,,011,001,2023-11-22_16h21.12.612,ETproject_Chi_2023.1.1,2023.1.1,60.07359014880508,
56,Month,五月,二月,,Vert,early,down,image/Chi_early.png,"[0, 0.4]","[0, -0.4]",3,incongruent,,,,,,,,,,,,,,,,,,,,,,,,,,,,,,,,,,,,,,0,9,9,3,,,,,,,,,,,,,,,,,,,,,,,,,,,,,838.6729501000373,1.0134584000334144,839.6760925999843,839.7596009999979,840.5592101999791,840.6592370999279,840.6592370999279,840.6592370999279,down,1,2.9949591000331566,,,,,,,,,,,,,,,,,,,,,,,,,,,,,,,,,,,,,011,001,2023-11-22_16h21.12.612,ETproject_Chi_2023.1.1,2023.1.1,60.07359014880508,
22,Month,二月,四月,,Vert,early,up,image/Chi_early.png,"[0, 0.4]","[0, -0.4]",2,congruent,,,,,,,,,,,,,,,,,,,,,,,,,,,,,,,,,,,,,,0,10,10,39,,,,,,,,,,,,,,,,,,,,,,,,,,,,,843.6843651999952,1.0117089999839664,844.6913400000194,844.7744720999617,845.574170100037,845.6742653999245,845.6742653999245,845.6742653999245,up,1,0.899776800069958,,,,,,,,,,,,,,,,,,,,,,,,,,,,,,,,,,,,,011,001,2023-11-22_16h21.12.612,ETproject_Chi_2023.1.1,2023.1.1,60.07359014880508,
132,Week,星期三 ,星期一,,Hori,late,left,image/Chi_late.png,"[-0.4, 0]","[0.4, 0]",2,incongruent,,,,,,,,,,,,,,,,,,,,,,,,,,,,,,,,,,,,,,0,11,11,2,,,,,,,,,,,,,,,,,,,,,,,,,,,,,846.6057118999306,1.0102779000299051,847.6069426999893,847.6900958999759,848.4899570000125,848.5901106999954,848.5901106999954,848.5901106999954,left,1,0.7119607999920845,,,,,,,,,,,,,,,,,,,,,,,,,,,,,,,,,,,,,011,001,2023-11-22_16h21.12.612,ETproject_Chi_2023.1.1,2023.1.1,60.07359014880508,
67,Month,七月,四月,,Vert,late,up,image/Chi_late.png,"[0, 0.4]","[0, -0.4]",3,incongruent,,,,,,,,,,,,,,,,,,,,,,,,,,,,,,,,,,,,,,0,12,12,6,,,,,,,,,,,,,,,,,,,,,,,,,,,,,849.3347947000293,1.0114257000386715,850.33932369994,850.422585299937,851.2223440000089,851.322374099982,851.322374099982,851.322374099982,up,1,1.1316232000244781,,,,,,,,,,,,,,,,,,,,,,,,,,,,,,,,,,,,,011,001,2023-11-22_16h21.12.612,ETproject_Chi_2023.1.1,2023.1.1,60.07359014880508,
121,Week,星期四,星期日,,Vert,late,down,image/Chi_late.png,"[0, 0.4]","[0, -0.4]",3,congruent,,,,,,,,,,,,,,,,,,,,,,,,,,,,,,,,,,,,,,0,13,13,22,,,,,,,,,,,,,,,,,,,,,,,,,,,,,852.480850199936,1.0120065999217331,853.4883433999494,853.5716714999871,854.371330599999,854.4714770999271,854.4714770999271,854.4714770999271,down,1,1.1739369001006708,,,,,,,,,,,,,,,,,,,,,,,,,,,,,,,,,,,,,011,001,2023-11-22_16h21.12.612,ETproject_Chi_2023.1.1,2023.1.1,60.07359014880508,
33,Month,六月,九月 ,,Vert,late,down,image/Chi_late.png,"[0, 0.4]","[0, -0.4]",3,congruent,,,,,,,,,,,,,,,,,,,,,,,,,,,,,,,,,,,,,,0,14,14,44,,,,,,,,,,,,,,,,,,,,,,,,,,,,,855.6812492000172,1.0115621999138966,856.6869610999711,856.7702996999724,857.5702159999637,857.6702748000389,857.6702748000389,857.6702748000389,down,1,1.0316132000880316,,,,,,,,,,,,,,,,,,,,,,,,,,,,,,,,,,,,,011,001,2023-11-22_16h21.12.612,ETproject_Chi_2023.1.1,2023.1.1,60.07359014880508,
100,Week,星期四,星期六,,Hori,early,left,image/Chi_early.png,"[-0.4, 0]","[0.4, 0]",2,congruent,,,,,,,,,,,,,,,,,,,,,,,,,,,,,,,,,,,,,,0,15,15,11,,,,,,,,,,,,,,,,,,,,,,,,,,,,,858.7367924000137,1.0112571000354365,859.7362178999465,859.8196053999709,860.6193801999325,860.7194352999795,860.7194352999795,860.7194352999795,left,1,1.0548085999907926,,,,,,,,,,,,,,,,,,,,,,,,,,,,,,,,,,,,,011,001,2023-11-22_16h21.12.612,ETproject_Chi_2023.1.1,2023.1.1,60.07359014880508,
3,Month,三月,六月,,Hori,early,left,image/Chi_early.png,"[-0.4, 0]","[0.4, 0]",3,congruent,,,,,,,,,,,,,,,,,,,,,,,,,,,,,,,,,,,,,,0,16,16,0,,,,,,,,,,,,,,,,,,,,,,,,,,,,,861.8118905000156,1.0111610998865217,862.818510800018,862.9018676999258,863.7017488999991,863.8016170000192,863.8016170000192,863.8016170000192,left,1,2.18878520000726,,,,,,,,,,,,,,,,,,,,,,,,,,,,,,,,,,,,,011,001,2023-11-22_16h21.12.612,ETproject_Chi_2023.1.1,2023.1.1,60.07359014880508,
3,Month,三月,四月,,Hori,early,left,image/Chi_early.png,"[-0.4, 0]","[0.4, 0]",1,congruent,,,,,,,,,,,,,,,,,,,,,,,,,,,,,,,,,,,,,,0,17,17,19,,,,,,,,,,,,,,,,,,,,,,,,,,,,,866.0203771999804,0.9995481999358162,867.0337710999884,867.117077199975,867.9169189999811,868.0168538999278,868.0168538999278,868.0168538999278,left,1,0.9813761000987142,,,,,,,,,,,,,,,,,,,,,,,,,,,,,,,,,,,,,011,001,2023-11-22_16h21.12.612,ETproject_Chi_2023.1.1,2023.1.1,60.07359014880508,
17,Month,一月,五月,,Vert,early,up,image/Chi_early.png,"[0, 0.4]","[0, -0.4]",4,congruent,,,,,,,,,,,,,,,,,,,,,,,,,,,,,,,,,,,,,,0,18,18,35,,,,,,,,,,,,,,,,,,,,,,,,,,,,,869.0212048999965,1.0150689999572933,870.0328274000203,870.1161298999796,870.915934199933,871.0157970000291,871.0157970000291,871.0157970000291,up,1,1.9733857999090105,,,,,,,,,,,,,,,,,,,,,,,,,,,,,,,,,,,,,011,001,2023-11-22_16h21.12.612,ETproject_Chi_2023.1.1,2023.1.1,60.07359014880508,
152,Week,星期一,星期二,,Vert,late,up,image/Chi_late.png,"[0, 0.4]","[0, -0.4]",1,incongruent,,,,,,,,,,,,,,,,,,,,,,,,,,,,,,,,,,,,,,0,19,19,45,,,,,,,,,,,,,,,,,,,,,,,,,,,,,873.0381749999942,1.01106319995597,874.0482734999387,874.1147586000152,874.914512099931,875.014553999994,875.014553999994,875.014553999994,down,0,1.4303611000068486,,,,,,,,,,,,,,,,,,,,,,,,,,,,,,,,,,,,,011,001,2023-11-22_16h21.12.612,ETproject_Chi_2023.1.1,2023.1.1,60.07359014880508,
28,Month,一月,四月,,Vert,late,down,image/Chi_late.png,"[0, 0.4]","[0, -0.4]",3,congruent,,,,,,,,,,,,,,,,,,,,,,,,,,,,,,,,,,,,,,0,20,20,9,,,,,,,,,,,,,,,,,,,,,,,,,,,,,876.4727017999394,1.0111634999047965,877.480421199929,877.5636994999368,878.3633955999976,878.4635435999371,878.4635435999371,878.4635435999371,down,1,0.7415783000178635,,,,,,,,,,,,,,,,,,,,,,,,,,,,,,,,,,,,,011,001,2023-11-22_16h21.12.612,ETproject_Chi_2023.1.1,2023.1.1,60.07359014880508,
98,Week,星期二,星期四,,Hori,early,left,image/Chi_early.png,"[-0.4, 0]","[0.4, 0]",2,congruent,,,,,,,,,,,,,,,,,,,,,,,,,,,,,,,,,,,,,,0,21,21,47,,,,,,,,,,,,,,,,,,,,,,,,,,,,,879.2564389000181,1.0116917999694124,880.2629286999581,880.3294567000121,881.1294333999977,881.2292012999533,881.2292012999533,881.2292012999533,left,1,0.7515609000110999,,,,,,,,,,,,,,,,,,,,,,,,,,,,,,,,,,,,,011,001,2023-11-22_16h21.12.612,ETproject_Chi_2023.1.1,2023.1.1,60.07359014880508,
15,Month,六月,九月 ,,Hori,late,right,image/Chi_late.png,"[-0.4, 0]","[0.4, 0]",3,congruent,,,,,,,,,,,,,,,,,,,,,,,,,,,,,,,,,,,,,,0,22,22,42,,,,,,,,,,,,,,,,,,,,,,,,,,,,,882.0188604999566,0.9993532000808045,883.0287642999319,883.1119635000359,883.9115371999796,884.0117836999707,884.0117836999707,884.0117836999707,right,1,0.7852341999532655,,,,,,,,,,,,,,,,,,,,,,,,,,,,,,,,,,,,,011,001,2023-11-22_16h21.12.612,ETproject_Chi_2023.1.1,2023.1.1,60.07359014880508,
112,Week,星期二,星期四,,Vert,early,up,image/Chi_early.png,"[0, 0.4]","[0, -0.4]",2,congruent,,,,,,,,,,,,,,,,,,,,,,,,,,,,,,,,,,,,,,0,23,23,41,,,,,,,,,,,,,,,,,,,,,,,,,,,,,884.83897599997,1.01173619995825,885.8443539999425,885.9276749999262,886.7272987000179,886.8272663999815,886.8272663999815,886.8272663999815,up,1,1.0986738000065088,,,,,,,,,,,,,,,,,,,,,,,,,,,,,,,,,,,,,011,001,2023-11-22_16h21.12.612,ETproject_Chi_2023.1.1,2023.1.1,60.07359014880508,
29,Month,二月,五月,,Vert,late,down,image/Chi_late.png,"[0, 0.4]","[0, -0.4]",3,congruent,,,,,,,,,,,,,,,,,,,,,,,,,,,,,,,,,,,,,,0,24,24,14,,,,,,,,,,,,,,,,,,,,,,,,,,,,,887.9558141999878,1.0146265000803396,888.9598252000287,889.0431933000218,889.8431725000264,889.9430564999348,889.9430564999348,889.9430564999348,down,1,2.182559399981983,,,,,,,,,,,,,,,,,,,,,,,,,,,,,,,,,,,,,011,001,2023-11-22_16h21.12.612,ETproject_Chi_2023.1.1,2023.1.1,60.07359014880508,
125,Week,星期四,星期一,,Hori,early,right,image/Chi_early.png,"[-0.4, 0]","[0.4, 0]",3,incongruent,,,,,,,,,,,,,,,,,,,,,,,,,,,,,,,,,,,,,,0,25,25,31,,,,,,,,,,,,,,,,,,,,,,,,,,,,,892.154454399948,1.0114076999016106,893.1585370999528,893.2419775000308,894.0416220999323,894.1417875000043,894.1417875000043,894.1417875000043,right,1,4.151910500018857,,,,,,,,,,,,,,,,,,,,,,,,,,,,,,,,,,,,,011,001,2023-11-22_16h21.12.612,ETproject_Chi_2023.1.1,2023.1.1,60.07359014880508,
6,Month,六月,七月,,Hori,early,left,image/Chi_early.png,"[-0.4, 0]","[0.4, 0]",1,congruent,,,,,,,,,,,,,,,,,,,,,,,,,,,,,,,,,,,,,,0,26,26,33,,,,,,,,,,,,,,,,,,,,,,,,,,,,,898.3451811999548,1.0113141000038013,899.3565918999957,899.4232769999653,900.2229103000136,900.3230678000255,900.3230678000255,900.3230678000255,left,1,2.210671899956651,,,,,,,,,,,,,,,,,,,,,,,,,,,,,,,,,,,,,011,001,2023-11-22_16h21.12.612,ETproject_Chi_2023.1.1,2023.1.1,60.07359014880508,
20,Month,十月 ,十二月,,Hori,late,right,image/Chi_late.png,"[-0.4, 0]","[0.4, 0]",2,congruent,,,,,,,,,,,,,,,,,,,,,,,,,,,,,,,,,,,,,,0,27,27,24,,,,,,,,,,,,,,,,,,,,,,,,,,,,,903.5666031999281,1.0146182000171393,904.5714221999515,904.6548124999972,905.4544578000205,905.5544793999288,905.5544793999288,905.5544793999288,right,1,2.2841971000889316,,,,,,,,,,,,,,,,,,,,,,,,,,,,,,,,,,,,,011,001,2023-11-22_16h21.12.612,ETproject_Chi_2023.1.1,2023.1.1,60.07359014880508,
60,Month,六月,五月,,Hori,late,left,image/Chi_late.png,"[-0.4, 0]","[0.4, 0]",1,incongruent,,,,,,,,,,,,,,,,,,,,,,,,,,,,,,,,,,,,,,0,28,28,43,,,,,,,,,,,,,,,,,,,,,,,,,,,,,907.8826808999293,1.011919099953957,908.8868284999626,908.9700282999547,909.7698734999867,909.8699529999867,909.8699529999867,909.8699529999867,left,1,4.134967399993911,,,,,,,,,,,,,,,,,,,,,,,,,,,,,,,,,,,,,011,001,2023-11-22_16h21.12.612,ETproject_Chi_2023.1.1,2023.1.1,60.07359014880508,
141,Week,星期四,星期三 ,,Vert,early,down,image/Chi_early.png,"[0, 0.4]","[0, -0.4]",1,incongruent,,,,,,,,,,,,,,,,,,,,,,,,,,,,,,,,,,,,,,0,29,29,7,,,,,,,,,,,,,,,,,,,,,,,,,,,,,914.0537865000078,1.0115014999173582,915.0679532999638,915.1347327999538,915.9344243999803,916.0344099999638,916.0344099999638,916.0344099999638,up,0,3.515324700041674,,,,,,,,,,,,,,,,,,,,,,,,,,,,,,,,,,,,,011,001,2023-11-22_16h21.12.612,ETproject_Chi_2023.1.1,2023.1.1,60.07359014880508,
18,Month,二月,六月,,Vert,early,up,image/Chi_early.png,"[0, 0.4]","[0, -0.4]",4,congruent,,,,,,,,,,,,,,,,,,,,,,,,,,,,,,,,,,,,,,0,30,30,25,,,,,,,,,,,,,,,,,,,,,,,,,,,,,919.5715469999705,1.0149180000880733,920.5828708999325,920.6661396999843,921.4657548000105,921.5658612999832,921.5658612999832,921.5658612999832,up,1,1.6633623000234365,,,,,,,,,,,,,,,,,,,,,,,,,,,,,,,,,,,,,011,001,2023-11-22_16h21.12.612,ETproject_Chi_2023.1.1,2023.1.1,60.07359014880508,
49,Month,六月,五月,,Hori,early,right,image/Chi_early.png,"[-0.4, 0]","[0.4, 0]",1,incongruent,,,,,,,,,,,,,,,,,,,,,,,,,,,,,,,,,,,,,,0,31,31,20,,,,,,,,,,,,,,,,,,,,,,,,,,,,,923.2537313000066,1.0155725999502465,924.2650509999366,924.3484706999734,925.1480604999233,925.2479977000039,925.2479977000039,925.2479977000039,right,1,1.4127708999440074,,,,,,,,,,,,,,,,,,,,,,,,,,,,,,,,,,,,,011,001,2023-11-22_16h21.12.612,ETproject_Chi_2023.1.1,2023.1.1,60.07359014880508,
149,Week,星期六,星期四,,Vert,late,up,image/Chi_late.png,"[0, 0.4]","[0, -0.4]",2,incongruent,,,,,,,,,,,,,,,,,,,,,,,,,,,,,,,,,,,,,,0,32,32,10,,,,,,,,,,,,,,,,,,,,,,,,,,,,,926.6974752999377,1.011787399998866,927.6972418000223,927.7804498999612,928.5802246000385,928.6803336000303,928.6803336000303,928.6803336000303,up,1,1.5965091000543907,,,,,,,,,,,,,,,,,,,,,,,,,,,,,,,,,,,,,011,001,2023-11-22_16h21.12.612,ETproject_Chi_2023.1.1,2023.1.1,60.07359014880508,
138,Week,星期一,星期日,,Hori,late,left,image/Chi_late.png,"[-0.4, 0]","[0.4, 0]",1,incongruent,,,,,,,,,,,,,,,,,,,,,,,,,,,,,,,,,,,,,,0,33,33,18,,,,,,,,,,,,,,,,,,,,,,,,,,,,,930.3054597999435,1.0117889000102878,931.3126748999348,931.3959497000324,932.1957173999399,932.2958221000154,932.2958221000154,932.2958221000154,right,0,1.246730599901639,,,,,,,,,,,,,,,,,,,,,,,,,,,,,,,,,,,,,011,001,2023-11-22_16h21.12.612,ETproject_Chi_2023.1.1,2023.1.1,60.07359014880508,
73,Month,八月,七月,,Vert,early,down,image/Chi_early.png,"[0, 0.4]","[0, -0.4]",1,incongruent,,,,,,,,,,,,,,,,,,,,,,,,,,,,,,,,,,,,,,0,34,34,29,,,,,,,,,,,,,,,,,,,,,,,,,,,,,933.5778631999856,1.0097699000034481,934.5784595999867,934.6615828999784,935.4615563999396,935.5615195999853,935.5615195999853,935.5615195999853,down,1,2.483543199952692,,,,,,,,,,,,,,,,,,,,,,,,,,,,,,,,,,,,,011,001,2023-11-22_16h21.12.612,ETproject_Chi_2023.1.1,2023.1.1,60.07359014880508,
132,Week,星期二,星期一,,Hori,late,left,image/Chi_late.png,"[-0.4, 0]","[0.4, 0]",1,incongruent,,,,,,,,,,,,,,,,,,,,,,,,,,,,,,,,,,,,,,0,35,35,36,,,,,,,,,,,,,,,,,,,,,,,,,,,,,938.0880158999935,1.012145399930887,939.093520800001,939.1770160000306,939.9764619999332,940.0762754000025,940.0762754000025,940.0762754000025,left,1,2.360559199936688,,,,,,,,,,,,,,,,,,,,,,,,,,,,,,,,,,,,,011,001,2023-11-22_16h21.12.612,ETproject_Chi_2023.1.1,2023.1.1,60.07359014880508,
74,Month,六月,四月,,Vert,late,up,image/Chi_late.png,"[0, 0.4]","[0, -0.4]",2,incongruent,,,,,,,,,,,,,,,,,,,,,,,,,,,,,,,,,,,,,,0,36,36,27,,,,,,,,,,,,,,,,,,,,,,,,,,,,,942.4690851999912,1.011701599927619,943.4751870000036,943.5586119999643,944.358412600006,944.4583058999851,944.4583058999851,944.4583058999851,up,1,1.8110521000344306,,,,,,,,,,,,,,,,,,,,,,,,,,,,,,,,,,,,,011,001,2023-11-22_16h21.12.612,ETproject_Chi_2023.1.1,2023.1.1,60.07359014880508,
